Blocks.thisRepN,Blocks.thisTrialN,Blocks.thisN,Blocks.thisIndex,staircase.thisTrialN,staircase.stepSize,staircase.intensity,thisRow.t,notes,instr.started,instructions.started,ready.started,instr.stopped,ready.keys,ready.rt,ready.duration,contrast.started,ISI_2.started,target_2.started,fixation_2.started,noise_2.started,target_2.stopped,resp_2.started,noise_2.stopped,contrast.stopped,staircase.response,resp_2.rt,resting.started,Rest.started,ready_2.started,Rest.stopped,resting.stopped,ready_2.keys,ready_2.rt,ready_2.duration,participant,date,expName,psychopyVersion,frameRate,expStart,
,,,,,,,,,0.004152499997871928,0.007403166004223749,0.007403166004223749,0.5872172079980373,space,-32.60425345800468,None,,,,,,,,,,,,,,,,,,,,PDan2,2023-08-03_15h59.24.446,2AFC,2023.2.0,None,2023-08-03 15h59.52.344441 -0300,
0,0,0,0,0,0.53584112,0.5,0.5987947079993319,,,,,,,,,0.5884221250016708,0.001347499986877665,1.0968259159999434,1.0968259159999434,1.3773799580085324,1.392551541008288,1.5266134580015205,1.6747481659986079,3.615491541000665,0,-31.065733582989196,,,,,,,,,PDan2,2023-08-03_15h59.24.446,2AFC,2023.2.0,None,2023-08-03 15h59.52.344441 -0300,
0,0,0,0,1,0.24871541,1.0,3.6182457079994492,,,,,,,,,3.6156409160030307,0.00015979100135155022,4.1226342910085805,4.1226342910085805,4.403495083010057,4.419678125006612,4.553531625002506,4.7014197500102455,5.170708083009231,1,-32.540944292006316,,,,,,,,,PDan2,2023-08-03_15h59.24.446,2AFC,2023.2.0,None,2023-08-03 15h59.52.344441 -0300,
0,0,0,0,2,0.24871541,0.75128459,5.176595958007965,,,,,,,,,5.170835166005418,0.00015400000847876072,5.6767842910048785,5.6767842910048785,5.9585950409964425,5.974837583009503,6.109040000010282,6.256715208000969,6.6087595830031205,1,-32.656731624985696,,,,,,,,,PDan2,2023-08-03_15h59.24.446,2AFC,2023.2.0,None,2023-08-03 15h59.52.344441 -0300,
0,0,0,0,3,0.24871541,0.75128459,6.614500875002705,,,,,,,,,6.608875791003811,0.0001534589973744005,7.1157924580038525,7.1157924580038525,7.396704665996367,7.413689000008162,7.547408541009645,7.694736625009682,8.080394415999763,1,-32.632488999995985,,,,,,,,,PDan2,2023-08-03_15h59.24.446,2AFC,2023.2.0,None,2023-08-03 15h59.52.344441 -0300,
0,0,0,0,4,0.24871541,0.75128459,8.086131999996724,,,,,,,,,8.080543000003672,0.0001681669964455068,8.586528375002672,8.586528375002672,8.869037291005952,8.882175500009907,9.018804749997798,9.166210708004655,9.518637750006747,1,-32.66457433300093,,,,,,,,,PDan2,2023-08-03_15h59.24.446,2AFC,2023.2.0,None,2023-08-03 15h59.52.344441 -0300,
0,0,0,0,5,0.24871541,0.5025691800000001,9.524701375004952,,,,,,,,,9.51877224999771,0.0001459580089431256,10.025046124996152,10.025046124996152,10.306537833006587,10.324271749996115,10.45703908300493,10.604718707996653,10.956809750001412,1,-32.661696125011076,,,,,,,,,PDan2,2023-08-03_15h59.24.446,2AFC,2023.2.0,None,2023-08-03 15h59.52.344441 -0300,
0,0,0,0,6,0.24871541,0.5025691800000001,10.962769457997638,,,,,,,,,10.956928333005635,0.0001475409953854978,11.46288762500626,11.46288762500626,11.744650749998982,11.761073500005296,11.894838332998916,12.0427149580064,12.378385250005522,1,-32.682682957994984,,,,,,,,,PDan2,2023-08-03_15h59.24.446,2AFC,2023.2.0,None,2023-08-03 15h59.52.344441 -0300,
0,0,0,0,7,0.24871541,0.5025691800000001,12.384529500006465,,,,,,,,,12.378502040999592,0.00014795800962019712,12.884958000009647,12.884958000009647,13.16601850000734,13.183163125009742,13.316630665998673,13.464232458005426,13.816606624997803,1,-32.66413854098937,,,,,,,,,PDan2,2023-08-03_15h59.24.446,2AFC,2023.2.0,None,2023-08-03 15h59.52.344441 -0300,
0,0,0,0,8,0.24871541,0.2538537700000001,13.822526333009591,,,,,,,,,13.816728375008097,0.00014504199498333037,14.322718583003734,14.322718583003734,14.604318041005172,14.620569666003576,14.754894583005807,14.902487375002238,15.321792916001868,1,-32.59601583400217,,,,,,,,,PDan2,2023-08-03_15h59.24.446,2AFC,2023.2.0,None,2023-08-03 15h59.52.344441 -0300,
0,0,0,0,9,0.24871541,0.2538537700000001,15.327715666004224,,,,,,,,,15.321911000006367,0.0001457920006942004,15.828006041003391,15.828006041003391,16.10987658301019,16.125828125004773,16.259842250001384,16.407474833002198,16.809979790996294,1,-32.6150346659997,,,,,,,,,PDan2,2023-08-03_15h59.24.446,2AFC,2023.2.0,None,2023-08-03 15h59.52.344441 -0300,
0,0,0,0,10,0.24871541,0.2538537700000001,16.81599579101021,,,,,,,,,16.810101708004368,0.00014870800077915192,17.31631691599614,17.31631691599614,17.597722874998,17.61393170800875,17.747929707998992,17.89590808301,18.18131600000197,1,-32.73134949999803,,,,,,,,,PDan2,2023-08-03_15h59.24.446,2AFC,2023.2.0,None,2023-08-03 15h59.52.344441 -0300,
0,0,0,0,11,0.11544347,0.005138360000000092,18.187100583003485,,,,,,,,,18.181437708000885,0.00014879199443385005,18.687478708001436,18.687478708001436,18.96964291599579,18.985219499998493,19.119478541004355,19.267160208008136,19.906894790998194,0,-32.367637791991,,,,,,,,,PDan2,2023-08-03_15h59.24.446,2AFC,2023.2.0,None,2023-08-03 15h59.52.344441 -0300,
0,0,0,0,12,0.11544347,0.1205818300000001,19.91910137500963,,,,,,,,,19.907017666002503,0.00014104100409895182,20.413042708009016,20.413042708009016,20.705381958003272,20.707847333003883,20.85587829099677,20.993282458002795,21.44224429099995,1,-32.57596800000465,,,,,,,,,PDan2,2023-08-03_15h59.24.446,2AFC,2023.2.0,None,2023-08-03 15h59.52.344441 -0300,
0,0,0,0,13,0.11544347,0.1205818300000001,21.448269625005196,,,,,,,,,21.44236641599855,0.00014800000644754618,21.94884720799746,21.94884720799746,22.230123125002137,22.24743600000511,22.381489416002296,22.528155916006654,22.863774666009704,1,-32.68476445799752,,,,,,,,,PDan2,2023-08-03_15h59.24.446,2AFC,2023.2.0,None,2023-08-03 15h59.52.344441 -0300,
0,0,0,0,14,0.11544347,0.1205818300000001,22.86976370800403,,,,,,,,,22.863921374999336,0.0001607910089660436,23.370074207996367,23.370074207996367,23.65139983300469,23.66834554100933,23.80253604101017,23.949507500001346,24.452264166000532,0,-32.50727979198564,,,,,,,,,PDan2,2023-08-03_15h59.24.446,2AFC,2023.2.0,None,2023-08-03 15h59.52.344441 -0300,
0,0,0,0,15,0.11544347,0.2360253000000001,24.458248583003297,,,,,,,,,24.452401250004186,0.0001591660111444071,24.958571124996524,24.958571124996524,25.240055875008693,25.256309582997346,25.390311541006668,25.53824408299988,25.89037495800585,1,-32.655684291996295,,,,,,,,,PDan2,2023-08-03_15h59.24.446,2AFC,2023.2.0,None,2023-08-03 15h59.52.344441 -0300,
0,0,0,0,16,0.11544347,0.2360253000000001,25.896521458009374,,,,,,,,,25.890496332998737,0.0001519170036772266,26.396567582996795,26.396567582996795,26.67838345799828,26.695310583003447,26.82895391600323,26.976474000010057,27.76353445800487,1,-32.22655004198896,,,,,,,,,PDan2,2023-08-03_15h59.24.446,2AFC,2023.2.0,None,2023-08-03 15h59.52.344441 -0300,
0,0,0,0,17,0.05358411,0.2360253000000001,27.769538082997315,,,,,,,,,27.76365295800497,0.00014754199946764857,28.26967350000632,28.26967350000632,28.55152012500912,28.569074958009878,28.703437541000312,28.849448374996427,29.185038166004233,1,-32.6844256669865,,,,,,,,,PDan2,2023-08-03_15h59.24.446,2AFC,2023.2.0,None,2023-08-03 15h59.52.344441 -0300,
0,0,0,0,18,0.05358411,0.18244119000000011,29.190814832996693,,,,,,,,,29.18517187499674,0.00014583300799131393,29.691394458001014,29.691394458001014,29.972796583009767,29.98932879100903,30.1236252910021,30.270917166009895,30.50604429100349,1,-32.77634987499914,,,,,,,,,PDan2,2023-08-03_15h59.24.446,2AFC,2023.2.0,None,2023-08-03 15h59.52.344441 -0300,
0,0,0,0,19,0.05358411,0.18244119000000011,30.511743208000553,,,,,,,,,30.50616341600835,0.00014354099403135478,31.012387583003147,31.012387583003147,31.2937325410021,31.310365915996954,31.444074665996595,31.591853083009482,31.83065837500908,1,-32.76864220798598,,,,,,,,,PDan2,2023-08-03_15h59.24.446,2AFC,2023.2.0,None,2023-08-03 15h59.52.344441 -0300,
0,0,0,0,20,0.05358411,0.18244119000000011,31.842695750005078,,,,,,,,,31.830778540999745,0.00014404200192075223,32.337032625000575,32.337032625000575,32.628711166005814,32.63119079099852,32.779488790998585,32.91660308300925,33.24835691599583,1,-32.686556291999295,,,,,,,,,PDan2,2023-08-03_15h59.24.446,2AFC,2023.2.0,None,2023-08-03 15h59.52.344441 -0300,
0,0,0,0,21,0.05358411,0.12885708000000012,33.2508579580026,,,,,,,,,33.248474708001595,0.000140791991725564,33.754872666002484,33.754872666002484,34.036739750008564,34.052660041008494,34.187718665998545,34.3346440410096,34.5529493750073,1,-32.78990387498925,,,,,,,,,PDan2,2023-08-03_15h59.24.446,2AFC,2023.2.0,None,2023-08-03 15h59.52.344441 -0300,
0,0,0,0,22,0.05358411,0.12885708000000012,34.55567033300758,,,,,,,,,34.553066000007675,0.00014295800065156072,35.05940825000289,35.05940825000289,35.341655750002246,35.35712595800578,35.49097112500749,35.638969375009765,35.97458695800742,1,-32.675558959002956,,,,,,,,,PDan2,2023-08-03_15h59.24.446,2AFC,2023.2.0,None,2023-08-03 15h59.52.344441 -0300,
0,0,0,0,23,0.05358411,0.12885708000000012,35.98062375000154,,,,,,,,,35.974709458008874,0.0001502499944763258,36.48093895800412,36.48093895800412,36.762335833002,36.77865441600443,36.913247958000284,37.06043858300836,37.32898600000772,1,-32.748770624995814,,,,,,,,,PDan2,2023-08-03_15h59.24.446,2AFC,2023.2.0,None,2023-08-03 15h59.52.344441 -0300,
0,0,0,0,24,0.05358411,0.07527297000000013,37.33463174999633,,,,,,,,,37.32910466600151,0.00014433400065172464,37.83520600000338,37.83520600000338,38.116896166000515,38.1332462910068,38.267266041002586,38.414949375001015,38.71704266600136,1,-32.70718462500372,,,,,,,,,PDan2,2023-08-03_15h59.24.446,2AFC,2023.2.0,None,2023-08-03 15h59.52.344441 -0300,
0,0,0,0,25,0.05358411,0.07527297000000013,38.71983829099918,,,,,,,,,38.71716800000286,0.0001552500034449622,39.233823875008966,39.233823875008966,39.50525129100424,39.52112370800751,39.6551827910007,39.80296141600411,40.12176437499875,1,-32.70004675000382,,,,,,,,,PDan2,2023-08-03_15h59.24.446,2AFC,2023.2.0,None,2023-08-03 15h59.52.344441 -0300,
0,0,0,0,26,0.05358411,0.07527297000000013,40.127789457998006,,,,,,,,,40.12188270800107,0.0001424999936716631,40.6276313749986,40.6276313749986,40.91040016600164,40.92339445800462,41.060033166009816,41.20776770800876,41.529844541000784,1,-32.68501370800368,,,,,,,,,PDan2,2023-08-03_15h59.24.446,2AFC,2023.2.0,None,2023-08-03 15h59.52.344441 -0300,
0,0,0,0,27,0.05358411,0.021688860000000136,41.542011041005026,,,,,,,,,41.52996866600006,0.00014637499407399446,42.03605870800675,42.03605870800675,42.32812745800766,42.330875833009486,42.47871208300057,42.615802333006286,43.24911320800311,1,-32.39567291698768,,,,,,,,,PDan2,2023-08-03_15h59.24.446,2AFC,2023.2.0,None,2023-08-03 15h59.52.344441 -0300,
0,0,0,0,28,0.05358411,0.021688860000000136,43.255017415998736,,,,,,,,,43.24923116600257,0.0001466249959776178,43.75550383300288,43.75550383300288,44.03704995800217,44.0530902909959,44.18803941599617,44.334952416000306,44.6871052080096,1,-32.66675504099112,,,,,,,,,PDan2,2023-08-03_15h59.24.446,2AFC,2023.2.0,None,2023-08-03 15h59.52.344441 -0300,
0,0,0,0,29,0.05358411,0.021688860000000136,44.69305812500534,,,,,,,,,44.687239332997706,0.0001588750019436702,45.204040124997846,45.204040124997846,45.47510950001015,45.49125400000776,45.6258300000045,45.77317541600496,46.00827437500993,1,-32.77518195900484,,,,,,,,,PDan2,2023-08-03_15h59.24.446,2AFC,2023.2.0,None,2023-08-03 15h59.52.344441 -0300,
0,0,0,0,30,0.02487154,0.001,46.01386466600525,,,,,,,,,46.00839291600278,0.00014420899969991297,46.514628666001954,46.514628666001954,46.79614341600973,46.81264520800323,46.946193499999936,47.09421562500938,47.680563665999216,0,-32.43194120899716,,,,,,,,,PDan2,2023-08-03_15h59.24.446,2AFC,2023.2.0,None,2023-08-03 15h59.52.344441 -0300,
0,0,0,0,31,0.02487154,0.025871540000000002,47.6864104999986,,,,,,,,,47.680687750005745,0.00014391700096894056,48.18692562500655,48.18692562500655,48.46818733299733,48.48477045800246,48.61869637500786,48.76646733300004,49.453230458006146,1,-32.32636008398549,,,,,,,,,PDan2,2023-08-03_15h59.24.446,2AFC,2023.2.0,None,2023-08-03 15h59.52.344441 -0300,
0,0,0,0,32,0.02487154,0.025871540000000002,49.459265625002445,,,,,,,,,49.45336854099878,0.0001475000026402995,49.95937095800764,49.95937095800764,50.24130175000755,50.2573268749984,50.39145404100418,50.539243457998964,50.82447595799749,1,-32.72594183399633,,,,,,,,,PDan2,2023-08-03_15h59.24.446,2AFC,2023.2.0,None,2023-08-03 15h59.52.344441 -0300,
0,0,0,0,33,0.01154435,0.025871540000000002,50.83048966599745,,,,,,,,,50.82460383299622,0.00014383300731424242,51.330684125001426,51.330684125001426,51.612377375000506,51.62863141600974,51.762746332999086,51.910459416001686,52.28310720800073,1,-32.6348004169995,,,,,,,,,PDan2,2023-08-03_15h59.24.446,2AFC,2023.2.0,None,2023-08-03 15h59.52.344441 -0300,
0,0,0,0,34,0.01154435,0.014327190000000002,52.29495812499954,,,,,,,,,52.28323524999723,0.00014200000441633165,52.78945870800817,52.78945870800817,53.0809435830015,53.08345329100848,53.23148304100323,53.36798662500223,53.901458041000296,1,-32.484072999999626,,,,,,,,,PDan2,2023-08-03_15h59.24.446,2AFC,2023.2.0,None,2023-08-03 15h59.52.344441 -0300,
0,0,0,0,35,0.01154435,0.014327190000000002,53.903449083009036,,,,,,,,,53.90154129100847,0.00010758399730548263,54.40776487500989,54.40776487500989,54.68929445800313,54.70749241599697,54.83957120800915,54.98748987499857,55.189007250010036,1,-32.80938929200056,,,,,,,,,PDan2,2023-08-03_15h59.24.446,2AFC,2023.2.0,None,2023-08-03 15h59.52.344441 -0300,
0,0,0,0,36,0.01154435,0.014327190000000002,55.19466187500802,,,,,,,,,55.18914987500466,0.0001806250074878335,55.69515733300068,55.69515733300068,55.977228375006234,55.993343374997494,56.12773629100411,56.27516387500509,56.47694833300193,1,-32.81470658398757,,,,,,,,,PDan2,2023-08-03_15h59.24.446,2AFC,2023.2.0,None,2023-08-03 15h59.52.344441 -0300,
0,0,0,0,37,0.00535841,0.0027828400000000017,56.48263429100916,,,,,,,,,56.477071708010044,0.0001432919962098822,56.9831817910017,56.9831817910017,57.26468045799993,57.280805333008175,57.41515291600081,57.56287304100988,57.84827387500263,0,-32.73039133400016,,,,,,,,,PDan2,2023-08-03_15h59.24.446,2AFC,2023.2.0,None,2023-08-03 15h59.52.344441 -0300,
0,0,0,0,38,0.00535841,0.008141250000000003,57.85380158299813,,,,,,,,,57.84840520800208,0.0001626250013941899,58.35403429099824,58.35403429099824,58.635836708010174,58.65214916600962,58.78655829100171,58.93414174999634,59.33656516599876,0,-32.616951666990644,,,,,,,,,PDan2,2023-08-03_15h59.24.446,2AFC,2023.2.0,None,2023-08-03 15h59.52.344441 -0300,
0,0,0,0,39,0.00535841,0.013499660000000004,59.342223208004725,,,,,,,,,59.336689957999624,0.00014429200382437557,59.84271725000872,59.84271725000872,60.12431225000182,60.141413666002336,60.27538387500681,60.42246183300449,60.81120437500067,1,-32.61884741700487,,,,,,,,,PDan2,2023-08-03_15h59.24.446,2AFC,2023.2.0,None,2023-08-03 15h59.52.344441 -0300,
0,0,0,0,40,0.00535841,0.013499660000000004,60.82355570800428,,,,,,,,,60.81132920800883,0.00014708300295751542,61.31762025000353,61.31762025000353,61.60970937499951,61.612984499995946,61.760232540997094,61.89701679100108,62.70115595799871,1,-32.2135391250049,,,,,,,,,PDan2,2023-08-03_15h59.24.446,2AFC,2023.2.0,None,2023-08-03 15h59.52.344441 -0300,
0,0,0,0,41,0.00248715,0.013499660000000004,62.713480250007706,,,,,,,,,62.70127820799826,0.00014279199240263551,63.21471645800921,63.21471645800921,63.49943595800141,63.50204062499688,63.64999483300198,63.78744795800594,63.93849866600067,1,-32.86714841698995,,,,,,,,,PDan2,2023-08-03_15h59.24.446,2AFC,2023.2.0,None,2023-08-03 15h59.52.344441 -0300,
0,0,0,0,42,0.00248715,0.011012510000000003,63.95081204100279,,,,,,,,,63.93862524999713,0.0001454579905839637,64.44475416600471,64.44475416600471,64.73693595800432,64.74304770800518,64.88740491600765,65.02371037499688,65.27310320800461,1,-32.77734004199738,,,,,,,,,PDan2,2023-08-03_15h59.24.446,2AFC,2023.2.0,None,2023-08-03 15h59.52.344441 -0300,
0,0,0,0,43,0.00248715,0.011012510000000003,65.27853845800564,,,,,,,,,65.2732487500034,0.00013204199785832316,65.77911462500924,65.77911462500924,66.06096708300174,66.07721708300232,66.21161845800816,66.35919775000366,67.0960556659993,1,-32.27786429200205,,,,,,,,,PDan2,2023-08-03_15h59.24.446,2AFC,2023.2.0,None,2023-08-03 15h59.52.344441 -0300,
0,0,0,0,44,0.00248715,0.011012510000000003,67.10214533300314,,,,,,,,,67.09620158300095,0.00016304200107697397,67.60234354100248,67.60234354100248,67.8839397910051,67.90017649999936,68.03420045800158,68.18198300000222,68.73496924999927,1,-32.45920466700045,,,,,,,,,PDan2,2023-08-03_15h59.24.446,2AFC,2023.2.0,None,2023-08-03 15h59.52.344441 -0300,
0,0,0,0,45,0.00115443,0.008525360000000003,68.74050174999866,,,,,,,,,68.73509225000453,0.00015825001173652709,69.24123866599984,69.24123866599984,69.5227965410013,69.53976937499829,69.67351300000155,69.82049987500068,70.10656104100053,0,-32.725799375009956,,,,,,,,,PDan2,2023-08-03_15h59.24.446,2AFC,2023.2.0,None,2023-08-03 15h59.52.344441 -0300,
0,0,0,0,46,0.00115443,0.009679790000000002,70.1126146250026,,,,,,,,,70.1066924159968,0.00016429199604317546,70.61275225000281,70.61275225000281,70.89391320799768,70.91009820799809,71.04453270800877,71.1920035410003,72.24654258300143,1,-31.959901333000744,,,,,,,,,PDan2,2023-08-03_15h59.24.446,2AFC,2023.2.0,None,2023-08-03 15h59.52.344441 -0300,
0,0,0,0,47,0.00115443,0.009679790000000002,72.25224583300587,,,,,,,,,72.24668733299768,0.0001540829980513081,72.75273729099717,72.75273729099717,73.03462299999956,73.05099695800163,73.1849482079997,73.33266200000071,73.73488579099649,0,-32.61581666699203,,,,,,,,,PDan2,2023-08-03_15h59.24.446,2AFC,2023.2.0,None,2023-08-03 15h59.52.344441 -0300,
0,0,0,0,48,0.00115443,0.010834220000000002,73.740525583009,,,,,,,,,73.73502462499891,0.0001651250058785081,74.2409021659987,74.2409021659987,74.52286179100338,74.54054237500532,74.67408179100312,74.82098124999902,75.55772291599715,1,-32.2815187919914,,,,,,,,,PDan2,2023-08-03_15h59.24.446,2AFC,2023.2.0,None,2023-08-03 15h59.52.344441 -0300,
0,0,0,0,49,0.00115443,0.010834220000000002,75.5636895409989,,,,,,,,,75.55784074999974,0.00014379099593497813,76.06378166600189,76.06378166600189,76.34569820800971,76.36179862500285,76.49606295800186,76.64377133300877,76.8991382910026,0,-32.752796250002575,,,,,,,,,PDan2,2023-08-03_15h59.24.446,2AFC,2023.2.0,None,2023-08-03 15h59.52.344441 -0300,
0,0,0,0,50,0.00115443,0.011988650000000002,76.9114704579988,,,,,,,,,76.89926620799815,0.00014566699974238873,77.40518341600546,77.40518341600546,77.6972137910052,77.69987066600879,77.8479708750092,77.9847789159976,78.31727383300313,0,-32.68687679100549,,,,,,,,,PDan2,2023-08-03_15h59.24.446,2AFC,2023.2.0,None,2023-08-03 15h59.52.344441 -0300,
0,0,0,0,51,0.00115443,0.013143080000000001,78.32322958300938,,,,,,,,,78.31739420800295,0.0001437499886378646,78.82367625000188,78.82367625000188,79.10495224999613,79.12161679100245,79.25529391600867,79.4031635410065,79.93927233300928,1,-32.473943083008635,,,,,,,,,PDan2,2023-08-03_15h59.24.446,2AFC,2023.2.0,None,2023-08-03 15h59.52.344441 -0300,
0,0,0,0,52,0.00115443,0.013143080000000001,79.9446030830004,,,,,,,,,79.93939179100562,0.00015787499432917684,80.44540887500625,80.44540887500625,80.72711845800222,80.74329574999865,80.87762895799824,81.02523979100806,81.31049483300012,1,-32.72405337500095,,,,,,,,,PDan2,2023-08-03_15h59.24.446,2AFC,2023.2.0,None,2023-08-03 15h59.52.344441 -0300,
0,0,0,0,53,0.00115443,0.013143080000000001,81.31654916600382,,,,,,,,,81.31062641600147,0.00014779198681935668,81.81671949999873,81.81671949999873,82.09835137499613,82.114665333007,82.24862633300654,82.39644583300105,82.74844729100005,1,-32.655558874990675,,,,,,,,,PDan2,2023-08-03_15h59.24.446,2AFC,2023.2.0,None,2023-08-03 15h59.52.344441 -0300,
0,0,0,0,54,0.00115443,0.011988650000000002,82.75093104100961,,,,,,,,,82.74858470800973,0.00016108299314510077,83.26551050000126,83.26551050000126,83.53732000000309,83.5527739579993,83.68696091600577,83.83470262499759,84.17023499999777,1,-32.67646187500213,,,,,,,,,PDan2,2023-08-03_15h59.24.446,2AFC,2023.2.0,None,2023-08-03 15h59.52.344441 -0300,
0,0,0,0,55,0.00115443,0.011988650000000002,84.17622300000221,,,,,,,,,84.17035320799914,0.0001458329934393987,84.67665329099691,84.67665329099691,84.95805133300018,84.97441850000178,85.10922162499628,85.25615304100211,85.60821508300432,1,-32.65852545799862,,,,,,,,,PDan2,2023-08-03_15h59.24.446,2AFC,2023.2.0,None,2023-08-03 15h59.52.344441 -0300,
0,0,0,0,56,0.00115443,0.011988650000000002,85.61406612501014,,,,,,,,,85.60834883300413,0.00014379200001712888,86.11450624999998,86.11450624999998,86.39622312500433,86.41365570800554,86.54732304099889,86.6942248330015,87.04654533299617,1,-32.656934500002535,,,,,,,,,PDan2,2023-08-03_15h59.24.446,2AFC,2023.2.0,None,2023-08-03 15h59.52.344441 -0300,
0,0,0,0,57,0.00115443,0.010834220000000002,87.04908487500506,,,,,,,,,87.04666341599659,0.00014312499843072146,87.55269150000822,87.55269150000822,87.83446879099938,87.851340291003,87.98473766600364,88.13244908300112,89.6555354160082,1,-31.483740832991316,,,,,,,,,PDan2,2023-08-03_15h59.24.446,2AFC,2023.2.0,None,2023-08-03 15h59.52.344441 -0300,
0,0,0,0,58,0.00115443,0.010834220000000002,89.65810233300726,,,,,,,,,89.65567516601004,0.00015758299559820443,90.16219679100323,90.16219679100323,90.44331608300854,90.45970824999677,90.59306554100476,90.7412405829964,91.05992166600481,1,-32.69882395899913,,,,,,,,,PDan2,2023-08-03_15h59.24.446,2AFC,2023.2.0,None,2023-08-03 15h59.52.344441 -0300,
0,0,0,0,59,0.00115443,0.010834220000000002,91.06599587500386,,,,,,,,,91.06003958299698,0.0001560829987283796,91.56645091599785,91.56645091599785,91.84805912499723,91.86442091599747,91.99825941601011,92.14596787499613,92.56500275000872,1,-32.59530633399845,,,,,,,,,PDan2,2023-08-03_15h59.24.446,2AFC,2023.2.0,None,2023-08-03 15h59.52.344441 -0300,
0,0,0,0,60,0.00115443,0.009679790000000002,92.57082150000497,,,,,,,,,92.56513033300871,0.00015950000670272857,93.07118658300897,93.07118658300897,93.35306125000352,93.36937687500904,93.50350258300023,93.65115658300056,94.09010166600638,1,-32.56816241599154,,,,,,,,,PDan2,2023-08-03_15h59.24.446,2AFC,2023.2.0,None,2023-08-03 15h59.52.344441 -0300,
0,0,0,0,61,0.00115443,0.009679790000000002,94.10245933300757,,,,,,,,,94.09022558300057,0.00014541599375661463,94.5962683329999,94.5962683329999,94.88867200000095,94.89132387501013,95.03914204100147,95.176472207997,95.44131766600185,0,-32.75640558300074,,,,,,,,,PDan2,2023-08-03_15h59.24.446,2AFC,2023.2.0,None,2023-08-03 15h59.52.344441 -0300,
0,0,0,0,62,0.00115443,0.010834220000000002,95.44731295800011,,,,,,,,,95.44145029100764,0.00014437500794883817,95.94758820800052,95.94758820800052,96.22930079100479,96.24565625000105,96.37977291599964,96.52744849999726,97.1973283749976,1,-32.341651708004065,,,,,,,,,PDan2,2023-08-03_15h59.24.446,2AFC,2023.2.0,None,2023-08-03 15h59.52.344441 -0300,
0,0,0,0,63,0.00115443,0.010834220000000002,97.20343908300856,,,,,,,,,97.19744587500463,0.00016000001050997525,97.7035886250087,97.7035886250087,97.98494325000502,98.00192954100203,98.1357048330101,98.28340304100129,98.8362327079958,1,-32.455796750000445,,,,,,,,,PDan2,2023-08-03_15h59.24.446,2AFC,2023.2.0,None,2023-08-03 15h59.52.344441 -0300,
0,0,0,0,64,0.00115443,0.010834220000000002,98.83874087499862,,,,,,,,,98.83636279100028,0.00016275000234600157,99.3423548330029,99.3423548330029,99.62448800000129,99.64034458300739,99.7742675000045,99.92218979100289,100.25756579100562,1,-32.67612899999949,,,,,,,,,PDan2,2023-08-03_15h59.24.446,2AFC,2023.2.0,None,2023-08-03 15h59.52.344441 -0300,
0,0,0,0,65,0.00115443,0.009679790000000002,100.26298641599715,,,,,,,,,100.25767591600015,0.0001307500060647726,100.76377499999944,100.76377499999944,101.04561241599731,101.06211637500382,101.19595479100826,101.34366220800439,101.64900325000053,1,-32.70264283299912,,,,,,,,,PDan2,2023-08-03_15h59.24.446,2AFC,2023.2.0,None,2023-08-03 15h59.52.344441 -0300,
0,0,0,0,66,0.00115443,0.009679790000000002,101.66124387500167,,,,,,,,,101.64912754100806,0.00014862501120660454,102.15515112499997,102.15515112499997,102.44740079100302,102.44978725000692,102.59791666599631,102.7345472080051,103.18402858299669,0,-32.57517250000092,,,,,,,,,PDan2,2023-08-03_15h59.24.446,2AFC,2023.2.0,None,2023-08-03 15h59.52.344441 -0300,
0,0,0,0,67,0.00115443,0.010834220000000002,103.18961733300239,,,,,,,,,103.18416504100605,0.00014666600327473134,103.69055616600963,103.69055616600963,103.97209912500693,103.98844341600488,104.12266962500871,104.27024583300226,104.64279687500675,0,-32.63451604099828,,,,,,,,,PDan2,2023-08-03_15h59.24.446,2AFC,2023.2.0,None,2023-08-03 15h59.52.344441 -0300,
0,0,0,0,68,0.00115443,0.011988650000000002,104.65474829101004,,,,,,,,,104.64292295800988,0.00014637500862590969,105.14897950000886,105.14897950000886,105.44073762500193,105.44416583300335,105.59138670800894,105.72797175000596,106.39485500000592,0,-32.363238542006,,,,,,,,,PDan2,2023-08-03_15h59.24.446,2AFC,2023.2.0,None,2023-08-03 15h59.52.344441 -0300,
0,0,0,0,69,0.00115443,0.013143080000000001,106.40085820799868,,,,,,,,,106.3949802910065,0.00016095800674520433,106.90150641600485,106.90150641600485,107.18283083300048,107.19922312500421,107.33324525000353,107.48095129099966,107.70278325000254,1,-32.78526287499699,,,,,,,,,PDan2,2023-08-03_15h59.24.446,2AFC,2023.2.0,None,2023-08-03 15h59.52.344441 -0300,
0,0,0,0,70,0.00115443,0.013143080000000001,107.71497508299944,,,,,,,,,107.702887499996,0.00012154199066571891,108.21630641599768,108.21630641599768,108.50119262500084,108.50370479100093,108.65164062500116,108.78868875000626,108.98720379100996,1,-32.82270570899709,,,,,,,,,PDan2,2023-08-03_15h59.24.446,2AFC,2023.2.0,None,2023-08-03 15h59.52.344441 -0300,
0,0,0,0,71,0.00115443,0.013143080000000001,108.99321954100742,,,,,,,,,108.98732404100883,0.000144959005410783,109.49343654100085,109.49343654100085,109.77493466599844,109.79116891601007,109.92582874999789,110.07302687500487,110.22467591600434,1,-32.86081304200343,,,,,,,,,PDan2,2023-08-03_15h59.24.446,2AFC,2023.2.0,None,2023-08-03 15h59.52.344441 -0300,
0,0,0,0,72,0.00115443,0.011988650000000002,110.23050229100045,,,,,,,,,110.22481608300586,0.0001466249959776178,110.74147979100235,110.74147979100235,111.01312925000093,111.02862491599808,111.16276858300262,111.31063045799965,111.4151337910007,1,-32.90257695899345,,,,,,,,,PDan2,2023-08-03_15h59.24.446,2AFC,2023.2.0,None,2023-08-03 15h59.52.344441 -0300,
0,0,0,0,73,0.00115443,0.011988650000000002,111.42746550000447,,,,,,,,,111.41523637500359,0.00012162499479018152,111.92123087499931,111.92123087499931,112.21363100000599,112.21759508299874,112.36416395800188,112.50113854100346,112.58600591600407,1,-32.93247662499198,,,,,,,,,PDan2,2023-08-03_15h59.24.446,2AFC,2023.2.0,None,2023-08-03 15h59.52.344441 -0300,
0,0,0,0,74,0.00115443,0.011988650000000002,112.5982072080078,,,,,,,,,112.58610566600692,0.00012308399891480803,113.0923861659976,113.0923861659976,113.38417299999855,113.38658270800079,113.53474104100314,113.67183508300513,113.75310487500974,1,-32.93611270800466,,,,,,,,,PDan2,2023-08-03_15h59.24.446,2AFC,2023.2.0,None,2023-08-03 15h59.52.344441 -0300,
0,0,0,0,75,0.00115443,0.010834220000000002,113.75542170800327,,,,,,,,,113.75320845800161,0.00013879200560040772,114.25955570800579,114.25955570800579,114.54107466600544,114.55715337500442,114.69106204100535,114.83916279100231,115.50893799999903,1,-32.338483875006204,,,,,,,,,PDan2,2023-08-03_15h59.24.446,2AFC,2023.2.0,None,2023-08-03 15h59.52.344441 -0300,
0,0,0,0,76,0.00115443,0.010834220000000002,115.5148391249968,,,,,,,,,115.50907570800337,0.0001494169991929084,116.01542358299776,116.01542358299776,116.29668775000027,116.31306629099709,116.44728370801022,116.59497520800505,116.86370012500265,1,-32.74421037499269,,,,,,,,,PDan2,2023-08-03_15h59.24.446,2AFC,2023.2.0,None,2023-08-03 15h59.52.344441 -0300,
0,0,0,0,77,0.00115443,0.010834220000000002,116.86915683299594,,,,,,,,,116.86382441601017,0.0001447500108042732,117.36979191600403,117.36979191600403,117.65171629100223,117.66842879100295,117.80203587500728,117.9496785000083,118.25525116600329,1,-32.70303887499904,,,,,,,,,PDan2,2023-08-03_15h59.24.446,2AFC,2023.2.0,None,2023-08-03 15h59.52.344441 -0300,
0,0,0,0,78,0.00115443,0.009679790000000002,118.26709737500641,,,,,,,,,118.25537475000601,0.00014650000957772136,118.76160204100597,118.76160204100597,119.05341904099623,119.05630050000036,119.203981166007,119.34111091600789,119.76002137499745,1,-32.59963599999901,,,,,,,,,PDan2,2023-08-03_15h59.24.446,2AFC,2023.2.0,None,2023-08-03 15h59.52.344441 -0300,
0,0,0,0,79,0.00115443,0.009679790000000002,119.7722372499993,,,,,,,,,119.76014358300017,0.00014845799887552857,120.26625812500424,120.26625812500424,120.55837941600475,120.56085291600903,120.70891487500921,120.84565558300528,121.2785535830044,0,-32.59648766600003,,,,,,,,,PDan2,2023-08-03_15h59.24.446,2AFC,2023.2.0,None,2023-08-03 15h59.52.344441 -0300,
0,0,0,0,80,0.00115443,0.010834220000000002,121.28438795800321,,,,,,,,,121.2786780410097,0.00014450000890064985,121.7847177079966,121.7847177079966,122.0665058750019,122.08352287500747,122.21693900000537,122.36447600000247,122.85048424999695,0,-32.52899558299396,,,,,,,,,PDan2,2023-08-03_15h59.24.446,2AFC,2023.2.0,None,2023-08-03 15h59.52.344441 -0300,
0,0,0,0,81,0.00115443,0.011988650000000002,122.85650987499685,,,,,,,,,122.85060804100067,0.0001459159975638613,123.35665870799858,123.35665870799858,123.6387235410075,123.65457450000395,123.78860804100987,123.93648304100498,124.30849954100267,1,-32.635086416994454,,,,,,,,,PDan2,2023-08-03_15h59.24.446,2AFC,2023.2.0,None,2023-08-03 15h59.52.344441 -0300,
0,0,0,0,82,0.00115443,0.011988650000000002,124.32080050000513,,,,,,,,,124.30859779100865,0.00011954200454056263,124.81459095800528,124.81459095800528,125.10695295799815,125.10935562499799,125.2438737909979,125.39441329099645,125.79376879100164,1,-32.6075994589919,,,,,,,,,PDan2,2023-08-03_15h59.24.446,2AFC,2023.2.0,None,2023-08-03 15h59.52.344441 -0300,
0,0,0,0,83,0.00115443,0.011988650000000002,125.79633150000882,,,,,,,,,125.79388570800074,0.00014224999176803976,126.30016450000403,126.30016450000403,126.58213325000543,126.59785737500351,126.73171570799605,126.87967675000255,127.2820317500009,1,-32.61038704200473,,,,,,,,,PDan2,2023-08-03_15h59.24.446,2AFC,2023.2.0,None,2023-08-03 15h59.52.344441 -0300,
0,0,0,0,84,0.00115443,0.010834220000000002,127.28798245800135,,,,,,,,,127.28215566600556,0.00015891599468886852,127.7883294159983,127.7883294159983,128.0698596250004,128.08651512500364,128.22028775000945,128.3679762910033,128.5864482909965,1,-32.79450033399917,,,,,,,,,PDan2,2023-08-03_15h59.24.446,2AFC,2023.2.0,None,2023-08-03 15h59.52.344441 -0300,
0,0,0,0,85,0.00115443,0.010834220000000002,128.59248904100969,,,,,,,,,128.58656629100733,0.00014308399113360792,129.09290062500804,129.09290062500804,129.37429437499668,129.39055574999657,129.52478800000972,129.6724008750025,129.87427366600605,1,-32.81625287499628,,,,,,,,,PDan2,2023-08-03_15h59.24.446,2AFC,2023.2.0,None,2023-08-03 15h59.52.344441 -0300,
0,0,0,0,86,0.00115443,0.010834220000000002,129.88020425000286,,,,,,,,,129.87440808300744,0.00015116599388420582,130.3806392080005,130.3806392080005,130.6621021660103,130.67920091599808,130.81287133300793,130.9601344160037,131.17856729100458,1,-32.79947837500367,,,,,,,,,PDan2,2023-08-03_15h59.24.446,2AFC,2023.2.0,None,2023-08-03 15h59.52.344441 -0300,
0,0,0,0,87,0.00115443,0.009679790000000002,131.18391458300175,,,,,,,,,131.17868866599747,0.00015120899479370564,131.68483079099678,131.68483079099678,131.9663071249961,131.98358637500496,132.11692174999916,132.26446849999775,132.45244704099605,1,-32.81974970799638,,,,,,,,,PDan2,2023-08-03_15h59.24.446,2AFC,2023.2.0,None,2023-08-03 15h59.52.344441 -0300,
0,0,0,0,88,0.00115443,0.009679790000000002,132.4650539580034,,,,,,,,,132.45257216600294,0.000149665997014381,132.95840383300674,132.95840383300674,133.2511386660044,133.25364424999862,133.38767612499942,133.53837562500848,133.8040079580096,1,-32.7408864589961,,,,,,,,,PDan2,2023-08-03_15h59.24.446,2AFC,2023.2.0,None,2023-08-03 15h59.52.344441 -0300,
0,0,0,0,89,0.00115443,0.009679790000000002,133.8096193750098,,,,,,,,,133.80412879100186,0.00014712499978486449,134.3102130000043,134.3102130000043,134.5921709999966,134.60962099999597,134.74324525000702,134.8900113330019,136.57997562500532,1,-31.33007437500055,,,,,,,,,PDan2,2023-08-03_15h59.24.446,2AFC,2023.2.0,None,2023-08-03 15h59.52.344441 -0300,
0,0,0,0,90,0.00115443,0.008525360000000003,136.5859414160077,,,,,,,,,136.58010058299988,0.00014595899847336113,137.0860792500025,137.0860792500025,137.36890333300107,137.3817189160036,137.51825683300558,137.6659685830091,138.82096516599995,1,-31.854318750003586,,,,,,,,,PDan2,2023-08-03_15h59.24.446,2AFC,2023.2.0,None,2023-08-03 15h59.52.344441 -0300,
0,0,0,0,91,0.00115443,0.008525360000000003,138.82703837500594,,,,,,,,,138.8210940410063,0.00015429100312758237,139.3273282500013,139.3273282500013,139.60931054099638,139.62508250000246,139.75929095799802,139.9069255409995,140.24250804100302,1,-32.67743879200134,,,,,,,,,PDan2,2023-08-03_15h59.24.446,2AFC,2023.2.0,None,2023-08-03 15h59.52.344441 -0300,
0,0,0,0,92,0.00115443,0.008525360000000003,140.24836383300135,,,,,,,,,140.24263466600678,0.00015391698980238289,140.75907791600912,140.75907791600912,141.03043016600714,141.04654754100193,141.18045512500976,141.32837504100462,142.15186666599766,1,-32.18361812499643,,,,,,,,,PDan2,2023-08-03_15h59.24.446,2AFC,2023.2.0,None,2023-08-03 15h59.52.344441 -0300,
0,0,0,0,93,0.00115443,0.007370930000000003,142.1643184160057,,,,,,,,,142.15198791600415,0.00014233299589250237,142.65804658300476,142.65804658300476,142.9504433330003,142.95284354100295,143.10096437500033,143.2377897080005,143.3192130410025,0,-32.93707987500238,,,,,,,,,PDan2,2023-08-03_15h59.24.446,2AFC,2023.2.0,None,2023-08-03 15h59.52.344441 -0300,
0,0,0,0,94,0.00115443,0.008525360000000003,143.3219952500076,,,,,,,,,143.31933929100342,0.00014287499652709812,143.82576145800704,143.82576145800704,144.10800800001016,144.12370433300384,144.25743591600622,144.40541908300656,144.89493220800068,0,-32.5169703749998,,,,,,,,,PDan2,2023-08-03_15h59.24.446,2AFC,2023.2.0,None,2023-08-03 15h59.52.344441 -0300,
0,0,0,0,95,0.00115443,0.009679790000000002,144.90688287500234,,,,,,,,,144.89506070800417,0.00014812499284744263,145.40112591600337,145.40112591600337,145.69313933300145,145.69559920800384,145.84362966600747,145.980239291006,146.17900041599933,0,-32.82227483300085,,,,,,,,,PDan2,2023-08-03_15h59.24.446,2AFC,2023.2.0,None,2023-08-03 15h59.52.344441 -0300,
0,0,0,0,96,0.00115443,0.010834220000000002,146.18499095800507,,,,,,,,,146.17912112500926,0.00014220800949260592,146.68518720800057,146.68518720800057,146.96687766599644,146.98305583299953,147.11731579100888,147.26496800000314,147.80124433300807,1,-32.47654508300184,,,,,,,,,PDan2,2023-08-03_15h59.24.446,2AFC,2023.2.0,None,2023-08-03 15h59.52.344441 -0300,
0,0,0,0,97,0.00115443,0.010834220000000002,147.80679412500467,,,,,,,,,147.8013679160067,0.00015020799764897674,148.30752258299617,148.30752258299617,148.58910466599627,148.60573795800155,148.7395888750034,148.8872209580004,149.9785427910101,0,-31.91702720799367,,,,,,,,,PDan2,2023-08-03_15h59.24.446,2AFC,2023.2.0,None,2023-08-03 15h59.52.344441 -0300,
0,0,0,0,98,0.00115443,0.011988650000000002,149.9907056660013,,,,,,,,,149.9786695829971,0.00014837499475106597,150.48446554099792,150.48446554099792,150.77689258300234,150.77931470800831,150.92744070800836,151.06407095800387,151.3130785000103,1,-32.77698154099926,,,,,,,,,PDan2,2023-08-03_15h59.24.446,2AFC,2023.2.0,None,2023-08-03 15h59.52.344441 -0300,
0,0,0,0,99,0.00115443,0.011988650000000002,151.31854950000707,,,,,,,,,151.3132071660075,0.00015895800606813282,151.81932570799836,151.81932570799836,152.1010882499977,152.11786112500704,152.25131895800587,152.3989683749969,152.58762641600333,1,-32.81819754099706,,,,,,,,,PDan2,2023-08-03_15h59.24.446,2AFC,2023.2.0,None,2023-08-03 15h59.52.344441 -0300,
0,0,0,0,100,0.00115443,0.011988650000000002,152.59972304099938,,,,,,,,,152.58774779099622,0.00014645900228060782,153.09386862500105,153.09386862500105,153.38567737500125,153.388108500003,153.536175250003,153.67344075000437,153.85510054099723,1,-32.84349212500092,,,,,,,,,PDan2,2023-08-03_15h59.24.446,2AFC,2023.2.0,None,2023-08-03 15h59.52.344441 -0300,
0,0,0,0,101,0.00115443,0.010834220000000002,153.86108450000756,,,,,,,,,153.8552440409985,0.00017262500477954745,154.36119158299698,154.36119158299698,154.64279641601024,154.65928054100368,154.793359333009,154.94071912500658,154.92810654100322,1,-33.0199536250002,,,,,,,,,PDan2,2023-08-03_15h59.24.446,2AFC,2023.2.0,None,2023-08-03 15h59.52.344441 -0300,
0,0,0,0,102,0.00115443,0.010834220000000002,154.94071912500658,,,,,,,,,154.92820700000448,0.00011908300803042948,155.434178541007,155.434178541007,155.72686920799606,155.72948562500824,155.86342529099784,,155.96491070800403,1,-33.05420183300157,,,,,,,,,PDan2,2023-08-03_15h59.24.446,2AFC,2023.2.0,None,2023-08-03 15h59.52.344441 -0300,
0,0,0,0,103,0.00115443,0.010834220000000002,155.97749970800942,,,,,,,,,155.9650123330066,0.00011162500595673919,156.47114229100407,156.47114229100407,156.76368083299894,156.76634362500045,156.90022108300764,157.0508230830019,157.27015845800634,1,-32.78458729200065,,,,,,,,,PDan2,2023-08-03_15h59.24.446,2AFC,2023.2.0,None,2023-08-03 15h59.52.344441 -0300,
0,0,0,0,104,0.00115443,0.009679790000000002,157.28222337500483,,,,,,,,,157.27026195800863,0.00012045800394844264,157.7762906249991,157.7762906249991,158.06817020800372,158.07116462499835,158.21863499999745,,158.30661641599727,1,-33.06787958399218,,,,,,,,,PDan2,2023-08-03_15h59.24.446,2AFC,2023.2.0,None,2023-08-03 15h59.52.344441 -0300,
0,0,0,0,105,0.00115443,0.009679790000000002,158.3187505829992,,,,,,,,,158.30671779099794,0.00011970799823757261,158.81294116600475,158.81294116600475,159.10498691600515,159.10763337500975,159.2553804580093,159.39203354100755,159.9921056250023,0,-32.41845104099775,,,,,,,,,PDan2,2023-08-03_15h59.24.446,2AFC,2023.2.0,None,2023-08-03 15h59.52.344441 -0300,
0,0,0,0,106,0.00115443,0.010834220000000002,159.99478983299923,,,,,,,,,159.9922365000093,0.00015037499542813748,160.4985143750091,160.4985143750091,160.78011670800333,160.79668054099602,160.93051033299707,161.0782419580064,161.4137325000047,0,-32.677649667006335,,,,,,,,,PDan2,2023-08-03_15h59.24.446,2AFC,2023.2.0,None,2023-08-03 15h59.52.344441 -0300,
0,0,0,0,107,0.00115443,0.011988650000000002,161.4197587910021,,,,,,,,,161.41386000000057,0.00014487499720416963,161.91990333300782,161.91990333300782,162.20150270800514,162.2180451660097,162.35200166600407,162.49967200000538,162.7385992500058,1,-32.76809987500019,,,,,,,,,PDan2,2023-08-03_15h59.24.446,2AFC,2023.2.0,None,2023-08-03 15h59.52.344441 -0300,
0,0,0,0,108,0.00115443,0.011988650000000002,162.7505052080087,,,,,,,,,162.73872029100312,0.00014287499652709812,163.24456270800147,163.24456270800147,163.5364754159964,163.53899208300572,163.6870590000035,163.82367179100402,163.97573837499658,1,-32.86608824999712,,,,,,,,,PDan2,2023-08-03_15h59.24.446,2AFC,2023.2.0,None,2023-08-03 15h59.52.344441 -0300,
0,0,0,0,109,0.00115443,0.011988650000000002,163.98797562500113,,,,,,,,,163.97585933300434,0.00014383399684447795,164.48180445800244,164.48180445800244,164.77397558299708,164.7771110409958,164.92447658300807,165.0614980829996,165.17636612500064,1,-32.91458749999583,,,,,,,,,PDan2,2023-08-03_15h59.24.446,2AFC,2023.2.0,None,2023-08-03 15h59.52.344441 -0300,
0,0,0,0,110,0.00115443,0.010834220000000002,165.1824755830021,,,,,,,,,165.17651858300087,0.00015741700190119445,165.6824960410013,165.6824960410013,165.96411862500827,165.98121829101,166.11480629100697,,166.24653487499745,1,-33.02328262499941,,,,,,,,,PDan2,2023-08-03_15h59.24.446,2AFC,2023.2.0,None,2023-08-03 15h59.52.344441 -0300,
0,0,0,0,111,0.00115443,0.010834220000000002,166.2487654160068,,,,,,,,,166.24665433300834,0.00013433300773613155,166.75269154099806,166.75269154099806,167.03423904100782,167.05062520800857,167.1847963330074,167.33266479099984,167.58456195800682,0,-32.766855999987456,,,,,,,,,PDan2,2023-08-03_15h59.24.446,2AFC,2023.2.0,None,2023-08-03 15h59.52.344441 -0300,
0,0,0,0,112,0.00115443,0.011988650000000002,167.59060541600047,,,,,,,,,167.5846924159996,0.00015174999134615064,168.09067695800331,168.09067695800331,168.37324850000732,168.3861995000043,168.5227788330085,168.6704663749988,168.9258877079992,1,-32.751369083998725,,,,,,,,,PDan2,2023-08-03_15h59.24.446,2AFC,2023.2.0,None,2023-08-03 15h59.52.344441 -0300,
0,0,0,0,113,0.00115443,0.011988650000000002,168.9377859160013,,,,,,,,,168.92600750000565,0.00014395899779628962,169.432274375009,169.432274375009,169.72371674999886,169.72614908299875,169.8744643329992,170.01124941599846,170.09570887500013,1,-32.93372662499314,,,,,,,,,PDan2,2023-08-03_15h59.24.446,2AFC,2023.2.0,None,2023-08-03 15h59.52.344441 -0300,
0,0,0,0,114,0.00115443,0.011988650000000002,170.10849641599634,,,,,,,,,170.09580916599953,0.0001202080020448193,170.60200225000153,170.60200225000153,170.89460354100447,170.8970505000034,171.0312763749971,171.18174174999876,171.31373129099666,1,-32.878324792007334,,,,,,,,,PDan2,2023-08-03_15h59.24.446,2AFC,2023.2.0,None,2023-08-03 15h59.52.344441 -0300,
0,0,0,0,115,0.00115443,0.010834220000000002,171.31918454100378,,,,,,,,,171.31386200000998,0.0001631659979466349,171.819474791002,171.819474791002,172.10154937500192,172.11790270800702,172.25186191599641,,172.367098540999,1,-33.03933462499117,,,,,,,,,PDan2,2023-08-03_15h59.24.446,2AFC,2023.2.0,None,2023-08-03 15h59.52.344441 -0300,
0,0,0,0,116,0.00115443,0.010834220000000002,172.36938641600136,,,,,,,,,172.36720266600605,0.0001370410027448088,172.87347983299696,172.87347983299696,173.15514879100374,173.17134675000852,173.30526049999753,173.4532615000062,173.78874862499651,1,-32.677158416991006,,,,,,,,,PDan2,2023-08-03_15h59.24.446,2AFC,2023.2.0,None,2023-08-03 15h59.52.344441 -0300,
0,0,0,0,117,0.00115443,0.010834220000000002,173.79428508300043,,,,,,,,,173.78886662500736,0.00014599999121855944,174.29480695800157,174.29480695800157,174.57665191600972,174.59302391600795,174.72707045800053,174.87467525000102,175.21025754100992,1,-32.68076241700328,,,,,,,,,PDan2,2023-08-03_15h59.24.446,2AFC,2023.2.0,None,2023-08-03 15h59.52.344441 -0300,
0,0,0,0,118,0.00115443,0.009679790000000002,175.21601000000373,,,,,,,,,175.2103795830044,0.00014775000454392284,175.71607100000256,175.71607100000256,175.99790458299685,176.0153838749975,176.14895616599824,176.2961516659998,176.58144620800158,1,-32.730129457995645,,,,,,,,,PDan2,2023-08-03_15h59.24.446,2AFC,2023.2.0,None,2023-08-03 15h59.52.344441 -0300,
0,0,0,0,119,0.00115443,0.009679790000000002,176.5874021250056,,,,,,,,,176.58159095799783,0.0001568750012665987,177.08765875000972,177.08765875000972,177.36999916599598,177.38315700000385,177.5202084580087,177.66746341600083,177.92227983300108,1,-32.75297679200594,,,,,,,,,PDan2,2023-08-03_15h59.24.446,2AFC,2023.2.0,None,2023-08-03 15h59.52.344441 -0300,
0,0,0,0,120,0.00115443,0.009679790000000002,177.93483058300626,,,,,,,,,177.92240637500072,0.0001488330017309636,178.42864483300946,178.42864483300946,178.72093712500646,178.72352991600928,178.85735874999955,179.0085888330068,179.27678341600404,1,-32.73511883299216,,,,,,,,,PDan2,2023-08-03_15h59.24.446,2AFC,2023.2.0,None,2023-08-03 15h59.52.344441 -0300,
0,0,0,0,121,0.00115443,0.008525360000000003,179.28949516599823,,,,,,,,,179.27688495800248,0.0001221249985974282,179.7828997500037,179.7828997500037,180.07551608300128,180.07882541599975,180.21344400000817,180.36284616599733,180.67847162499675,0,-32.699684208011604,,,,,,,,,PDan2,2023-08-03_15h59.24.446,2AFC,2023.2.0,None,2023-08-03 15h59.52.344441 -0300,
0,0,0,0,122,0.00115443,0.009679790000000002,180.68402683299792,,,,,,,,,180.67861945800541,0.00014266600192058831,181.18450008300715,181.18450008300715,181.46636929099623,181.48288766600308,181.61646666600427,181.76451833300234,181.8658452910022,0,-32.9098857909994,,,,,,,,,PDan2,2023-08-03_15h59.24.446,2AFC,2023.2.0,None,2023-08-03 15h59.52.344441 -0300,
0,0,0,0,123,0.00115443,0.010834220000000002,181.87108075000287,,,,,,,,,181.8659500000067,0.00012741600221488625,182.37205595799605,182.37205595799605,182.65380174999882,182.67025883300812,182.80425437500526,182.95195145800244,183.4379402080085,1,-32.52358424999693,,,,,,,,,PDan2,2023-08-03_15h59.24.446,2AFC,2023.2.0,None,2023-08-03 15h59.52.344441 -0300,
0,0,0,0,124,0.00115443,0.010834220000000002,183.44385816600698,,,,,,,,,183.43805883300956,0.0001438750041415915,183.94439279100334,183.94439279100334,184.22593183300341,184.24266820799676,184.37650608300464,184.52392575000704,184.99312787500094,0,-32.54169766600535,,,,,,,,,PDan2,2023-08-03_15h59.24.446,2AFC,2023.2.0,None,2023-08-03 15h59.52.344441 -0300,
0,0,0,0,125,0.00115443,0.011988650000000002,184.99922745799995,,,,,,,,,184.99326387500332,0.00015679099305998534,185.4993399160012,185.4993399160012,185.78154741600156,185.79769833300088,185.93146400000842,186.07927950000158,186.25070341600804,1,-32.836359415989136,,,,,,,,,PDan2,2023-08-03_15h59.24.446,2AFC,2023.2.0,None,2023-08-03 15h59.52.344441 -0300,
0,0,0,0,126,0.00115443,0.011988650000000002,186.26285670801008,,,,,,,,,186.25082916600513,0.00015645899111405015,186.7571888750099,186.7571888750099,187.04895195800054,187.0514442910062,187.1994674160087,187.33622062500217,187.55485883299843,1,-32.79934462500387,,,,,,,,,PDan2,2023-08-03_15h59.24.446,2AFC,2023.2.0,None,2023-08-03 15h59.52.344441 -0300,
0,0,0,0,127,0.00115443,0.011988650000000002,187.56729658300173,,,,,,,,,187.5549845409987,0.00014258400187827647,188.06112470800872,188.06112470800872,188.35343395800737,188.35588345800352,188.50394075000077,188.6414338750037,188.72566325000662,1,-32.933368167010485,,,,,,,,,PDan2,2023-08-03_15h59.24.446,2AFC,2023.2.0,None,2023-08-03 15h59.52.344441 -0300,
0,0,0,0,128,0.00115443,0.010834220000000002,188.7381720830017,,,,,,,,,188.72576720800134,0.0001230000052601099,189.23191983300785,189.23191983300785,189.52396937500453,189.52667862499948,189.6746280410007,189.8115217500017,189.99318020801002,1,-32.845242499999586,,,,,,,,,PDan2,2023-08-03_15h59.24.446,2AFC,2023.2.0,None,2023-08-03 15h59.52.344441 -0300,
0,0,0,0,129,0.00115443,0.010834220000000002,189.9990820410021,,,,,,,,,189.9933117909968,0.00015762500697746873,190.49948374999803,190.49948374999803,190.78103041600843,190.79756249999627,190.93134966600337,191.0792318330059,191.2975866659981,1,-32.79837750000297,,,,,,,,,PDan2,2023-08-03_15h59.24.446,2AFC,2023.2.0,None,2023-08-03 15h59.52.344441 -0300,
0,0,0,0,130,0.00115443,0.010834220000000002,191.30286591600452,,,,,,,,,191.29769095800293,0.0001253749942407012,191.8038466660073,191.8038466660073,192.08556712500285,192.10206862499763,192.2359987910022,192.38370083300106,192.61907566600712,0,-32.77462458399532,,,,,,,,,PDan2,2023-08-03_15h59.24.446,2AFC,2023.2.0,None,2023-08-03 15h59.52.344441 -0300,
0,0,0,0,131,0.00115443,0.011988650000000002,192.62173162499676,,,,,,,,,192.61921695800265,0.00016054199659265578,193.12532200000715,193.12532200000715,193.40714991600544,193.42344300000696,193.55729491599777,193.7047235409991,193.83970608300297,1,-32.881428708002204,,,,,,,,,PDan2,2023-08-03_15h59.24.446,2AFC,2023.2.0,None,2023-08-03 15h59.52.344441 -0300,
0,0,0,0,132,0.00115443,0.011988650000000002,193.84528345800936,,,,,,,,,193.83982895800727,0.0001494590105721727,194.34606875000463,194.34606875000463,194.62752833300328,194.64360420800222,194.77865441600443,194.92565491600544,195.39476762501,0,-32.55019516599714,,,,,,,,,PDan2,2023-08-03_15h59.24.446,2AFC,2023.2.0,None,2023-08-03 15h59.52.344441 -0300,
0,0,0,0,133,0.00115443,0.013143080000000001,195.4007805000001,,,,,,,,,195.39489058300387,0.00015179200272541493,195.9005650409963,195.9005650409963,196.1828522910073,196.19991787499748,196.33301320800092,196.4809507500031,197.16746362501,1,-32.32800037499692,,,,,,,,,PDan2,2023-08-03_15h59.24.446,2AFC,2023.2.0,None,2023-08-03 15h59.52.344441 -0300,
0,0,0,0,134,0.00115443,0.013143080000000001,197.17335279099643,,,,,,,,,197.16758925000613,0.00016349999350495636,197.67364583299786,197.67364583299786,197.9554002500081,197.9727386250015,198.10629887500545,198.25345587500487,198.58889641599671,1,-32.68338387500262,,,,,,,,,PDan2,2023-08-03_15h59.24.446,2AFC,2023.2.0,None,2023-08-03 15h59.52.344441 -0300,
0,0,0,0,135,0.00115443,0.013143080000000001,198.59478933300124,,,,,,,,,198.5890206250042,0.000159624993102625,199.09510212500754,199.09510212500754,199.37690625000687,199.39312345800863,199.52693220799847,199.67496183300682,200.47869808299583,0,-32.2140262920002,,,,,,,,,PDan2,2023-08-03_15h59.24.446,2AFC,2023.2.0,None,2023-08-03 15h59.52.344441 -0300,
0,0,0,0,136,0.00115443,0.014297510000000001,200.48470337499748,,,,,,,,,200.4788242909999,0.00014962498971726745,200.98498862500128,200.98498862500128,201.2664097079978,201.28271949999908,201.41715704099624,201.56474675000936,201.8499428750074,1,-32.73219920799602,,,,,,,,,PDan2,2023-08-03_15h59.24.446,2AFC,2023.2.0,None,2023-08-03 15h59.52.344441 -0300,
0,0,0,0,137,0.00115443,0.014297510000000001,201.85591100000602,,,,,,,,,201.85006341600092,0.00014179199934005737,202.3563001660077,202.3563001660077,202.6378173330013,202.65414108299592,202.788376291006,202.93589337500453,203.123822708003,1,-32.82007166699623,,,,,,,,,PDan2,2023-08-03_15h59.24.446,2AFC,2023.2.0,None,2023-08-03 15h59.52.344441 -0300,
0,0,0,0,138,0.00115443,0.014297510000000001,203.13670954100962,,,,,,,,,203.1239262500021,0.00012604199582710862,203.6301067910099,203.6301067910099,203.92245395800273,203.92490162499598,204.0589449580002,,204.1241049579985,1,-33.10075300000608,,,,,,,,,PDan2,2023-08-03_15h59.24.446,2AFC,2023.2.0,None,2023-08-03 15h59.52.344441 -0300,
0,0,0,0,139,0.00115443,0.013143080000000001,204.12950666600955,,,,,,,,,204.12420829100301,0.0001316250127274543,204.62979320800514,204.62979320800514,204.9123761660012,204.9259030000103,205.06253204100358,205.2102080409968,205.39832904099603,1,-32.81893004200538,,,,,,,,,PDan2,2023-08-03_15h59.24.446,2AFC,2023.2.0,None,2023-08-03 15h59.52.344441 -0300,
0,0,0,0,140,0.00115443,0.013143080000000001,205.41074729099637,,,,,,,,,205.3984495830082,0.00014354199811350554,205.90434170801018,205.90434170801018,206.19696783300606,206.1995569999999,206.34746295800142,206.48394716600887,206.79994808300398,1,-32.71146312500059,,,,,,,,,PDan2,2023-08-03_15h59.24.446,2AFC,2023.2.0,None,2023-08-03 15h59.52.344441 -0300,
0,0,0,0,141,0.00115443,0.013143080000000001,206.80586633300118,,,,,,,,,206.8000691250054,0.00014845799887552857,207.30603166599758,207.30603166599758,207.58800699999847,207.6042341660068,207.73820470800274,207.88597966599627,208.10418791600387,1,-32.79645675000211,,,,,,,,,PDan2,2023-08-03_15h59.24.446,2AFC,2023.2.0,None,2023-08-03 15h59.52.344441 -0300,
0,0,0,0,142,0.00115443,0.011988650000000002,208.1097789159976,,,,,,,,,208.10431079100817,0.0001429999974789098,208.61024449999968,208.61024449999968,208.8921441249986,208.90844445800758,209.04228525000508,209.19020391600498,209.51296937500592,1,-32.68375008300063,,,,,,,,,PDan2,2023-08-03_15h59.24.446,2AFC,2023.2.0,None,2023-08-03 15h59.52.344441 -0300,
0,0,0,0,143,0.00115443,0.011988650000000002,209.52474479100783,,,,,,,,,209.51308833299845,0.0001405420043738559,210.01921975000005,210.01921975000005,210.31069162499625,210.31320479100395,210.46122708299663,210.59824454100453,210.91377616600948,1,-32.70582191599533,,,,,,,,,PDan2,2023-08-03_15h59.24.446,2AFC,2023.2.0,None,2023-08-03 15h59.52.344441 -0300,
0,0,0,0,144,0.00115443,0.011988650000000002,210.91656458300713,,,,,,,,,210.91389812499983,0.00014720798935741186,211.41979304100096,211.41979304100096,211.70221262500854,211.71534575000987,211.85208241600776,211.99972491600784,212.13442625000607,1,-32.883974374999525,,,,,,,,,PDan2,2023-08-03_15h59.24.446,2AFC,2023.2.0,None,2023-08-03 15h59.52.344441 -0300,
0,0,0,0,145,0.00115443,0.010834220000000002,212.1400007080083,,,,,,,,,212.13455895800143,0.00014412500604521483,212.64094287500484,212.64094287500484,212.92223541600106,212.93866608300596,213.07255100000475,213.22046016600507,213.6395187080052,0,-32.59634299999743,,,,,,,,,PDan2,2023-08-03_15h59.24.446,2AFC,2023.2.0,None,2023-08-03 15h59.52.344441 -0300,
0,0,0,0,146,0.00115443,0.011988650000000002,213.64520262500446,,,,,,,,,213.6396731660061,0.00015308299043681473,214.1456169160083,214.1456169160083,214.42812116599816,214.4412147080002,214.57856962500955,214.7256950410083,215.0109988750046,0,-32.730582958000014,,,,,,,,,PDan2,2023-08-03_15h59.24.446,2AFC,2023.2.0,None,2023-08-03 15h59.52.344441 -0300,
0,0,0,0,147,0.00115443,0.013143080000000001,215.01669695800229,,,,,,,,,215.01112341599946,0.0001457920006942004,215.5170732080005,215.5170732080005,215.79883470800996,215.81509720800386,215.94921208299638,216.09691670800385,216.6999693329999,0,-32.41236870799912,,,,,,,,,PDan2,2023-08-03_15h59.24.446,2AFC,2023.2.0,None,2023-08-03 15h59.52.344441 -0300,
0,0,0,0,148,0.00115443,0.014297510000000001,216.70578170800582,,,,,,,,,216.7000919580023,0.00014395899779628962,217.2168942080025,217.2168942080025,217.4878372910025,217.5041327910003,217.6383021250076,217.7859500409977,217.9741227080085,1,-32.81981441700191,,,,,,,,,PDan2,2023-08-03_15h59.24.446,2AFC,2023.2.0,None,2023-08-03 15h59.52.344441 -0300,
0,0,0,0,149,0.00115443,0.014297510000000001,217.98646500000905,,,,,,,,,217.9742459160043,0.0001392499980283901,218.48001775000012,218.48001775000012,218.77246733300854,218.7757650410058,218.92312954099907,219.05975300000864,219.077072125001,1,-33.00103995799145,,,,,,,,,PDan2,2023-08-03_15h59.24.446,2AFC,2023.2.0,None,2023-08-03 15h59.52.344441 -0300,
0,0,0,0,,,,,,,,,,,,,,,,,,,,,,,,219.07719758299936,219.09006833299645,249.07471775000158,249.07853587499994,250.41749437499675,up,-31.81187679200957,None,PDan2,2023-08-03_15h59.24.446,2AFC,2023.2.0,None,2023-08-03 15h59.52.344441 -0300,
