Blocks.thisRepN,Blocks.thisTrialN,Blocks.thisN,Blocks.thisIndex,staircase.thisTrialN,staircase.stepSize,staircase.intensity,thisRow.t,notes,instr.started,instructions.started,ready.started,instr.stopped,ready.keys,ready.rt,ready.duration,contrast.started,ISI_2.started,target_2.started,fixation_2.started,noise_2.started,target_2.stopped,resp_2.started,noise_2.stopped,contrast.stopped,staircase.response,resp_2.rt,resting.started,Rest.started,ready_2.started,Rest.stopped,resting.stopped,ready_2.keys,ready_2.rt,ready_2.duration,participant,date,expName,psychopyVersion,frameRate,expStart,
,,,,,,,,,0.004320042004110292,0.007980042006238364,0.007980042006238364,1.8372286670055473,a,-12.794794041008572,None,,,,,,,,,,,,,,,,,,,,P002,2023-08-03_12h02.25.158,2AFC,2023.2.0,None,2023-08-03 12h02.34.493796 -0300,
0,0,0,0,0,0.53584112,0.5,1.8471529170055874,,,,,,,,,1.8387112920026993,0.0016744169988669455,2.348071041997173,2.348071041997173,2.6263899589976063,2.641540917000384,2.776170541997999,2.923021541995695,3.275446750005358,1,-14.100276248995215,,,,,,,,,P002,2023-08-03_12h02.25.158,2AFC,2023.2.0,None,2023-08-03 12h02.34.493796 -0300,
0,0,0,0,1,0.24871541,0.0,3.2901264170068316,,,,,,,,,3.2755962920055026,0.0001601249969098717,3.7817356669984292,3.7817356669984292,4.063248292004573,4.079513000004226,4.213675709004747,4.361278416996356,4.780487791998894,0,-14.029077665996738,,,,,,,,,P002,2023-08-03_12h02.25.158,2AFC,2023.2.0,None,2023-08-03 12h02.34.493796 -0300,
0,0,0,0,2,0.24871541,0.24871541,4.785898333997466,,,,,,,,,4.780618417004007,0.00014933299098629504,5.286475041997619,5.286475041997619,5.568782667003688,5.585252999997465,5.7193280840001535,5.866339792002691,6.104508167001768,1,-14.208893457005615,,,,,,,,,P002,2023-08-03_12h02.25.158,2AFC,2023.2.0,None,2023-08-03 12h02.34.493796 -0300,
0,0,0,0,3,0.24871541,0.24871541,6.117094166998868,,,,,,,,,6.104609125002753,0.00012616600724868476,6.61070941700018,6.61070941700018,6.903072417000658,6.9054788750072476,7.05359291700006,7.191114959001425,7.305536708998261,1,-14.348570332993404,,,,,,,,,P002,2023-08-03_12h02.25.158,2AFC,2023.2.0,None,2023-08-03 12h02.34.493796 -0300,
0,0,0,0,4,0.11544347,0.24871541,7.31095254200045,,,,,,,,,7.305652958995779,0.00014316699525807053,7.811923333996674,7.811923333996674,8.093400500001735,8.110414417009451,8.2444387919968,8.39153045900457,8.492844916996546,1,-14.346933749999152,,,,,,,,,P002,2023-08-03_12h02.25.158,2AFC,2023.2.0,None,2023-08-03 12h02.34.493796 -0300,
0,0,0,0,5,0.11544347,0.13327193999999998,8.497965667003882,,,,,,,,,8.492977917005192,0.00014729099348187447,8.99864183399768,8.99864183399768,9.2806827089953,9.297131375002209,9.431259125005454,9.578836375003448,9.864174417001777,1,-14.161209790996509,,,,,,,,,P002,2023-08-03_12h02.25.158,2AFC,2023.2.0,None,2023-08-03 12h02.34.493796 -0300,
0,0,0,0,6,0.11544347,0.13327193999999998,9.866770209002425,,,,,,,,,9.864292084006593,0.00015854199591558427,10.370550167004694,10.370550167004694,10.652006792006432,10.668534291995456,10.802613542007748,10.950106584001333,11.219007499996223,1,-14.182688540997333,,,,,,,,,P002,2023-08-03_12h02.25.158,2AFC,2023.2.0,None,2023-08-03 12h02.34.493796 -0300,
0,0,0,0,7,0.11544347,0.13327193999999998,11.224136083998019,,,,,,,,,11.219131834004656,0.00015995900321286172,11.725042792008026,11.725042792008026,12.00686691699957,12.0229850839969,12.157288041998981,12.304779250000138,12.609773333999328,1,-14.14109633199405,,,,,,,,,P002,2023-08-03_12h02.25.158,2AFC,2023.2.0,None,2023-08-03 12h02.34.493796 -0300,
0,0,0,0,8,0.11544347,0.01782846999999997,12.622522167002899,,,,,,,,,12.60988937500224,0.0001256669929716736,13.115818667007261,13.115818667007261,13.40833395899972,13.411862666995148,13.5588678750064,13.69568900000013,13.961333375002141,1,-14.193023874002392,,,,,,,,,P002,2023-08-03_12h02.25.158,2AFC,2023.2.0,None,2023-08-03 12h02.34.493796 -0300,
0,0,0,0,9,0.11544347,0.01782846999999997,13.966746417005197,,,,,,,,,13.961468124995008,0.000145875004818663,14.46737983400817,14.46737983400817,14.749168167007156,14.765521499997703,14.899784584005829,15.047288375004428,15.352456334003364,1,-14.141406415990787,,,,,,,,,P002,2023-08-03_12h02.25.158,2AFC,2023.2.0,None,2023-08-03 12h02.34.493796 -0300,
0,0,0,0,10,0.11544347,0.01782846999999997,15.365049708998413,,,,,,,,,15.352574584001559,0.00013308299821801484,15.858222459006356,15.858222459006356,16.151009584005806,16.153517500002636,16.30151379200106,16.438159500001348,16.68720216699876,1,-14.215166123991366,,,,,,,,,P002,2023-08-03_12h02.25.158,2AFC,2023.2.0,None,2023-08-03 12h02.34.493796 -0300,
0,0,0,0,11,0.05358411,0.0,16.69258233399887,,,,,,,,,16.68735116699827,0.0001615410001249984,17.19333424999786,17.19333424999786,17.475589124995167,17.491254167005536,17.62560491700424,17.77308687500772,17.924548541996046,0,-14.302517623989843,,,,,,,,,P002,2023-08-03_12h02.25.158,2AFC,2023.2.0,None,2023-08-03 12h02.34.493796 -0300,
0,0,0,0,12,0.05358411,0.05358411,17.92974254200817,,,,,,,,,17.92468516700319,0.00014370899589266628,18.430730125008267,18.430730125008267,18.71288566700241,18.72869908400753,18.863091749997693,19.01060420900467,19.22908879199531,1,-14.233908790993155,,,,,,,,,P002,2023-08-03_12h02.25.158,2AFC,2023.2.0,None,2023-08-03 12h02.34.493796 -0300,
0,0,0,0,13,0.05358411,0.05358411,19.2344007500069,,,,,,,,,19.22920620899822,0.00014266700600273907,19.734821917008958,19.734821917008958,20.016810750006698,20.03394679199846,20.167330416996265,20.31504699999641,20.53363462499692,1,-14.233148165993043,,,,,,,,,P002,2023-08-03_12h02.25.158,2AFC,2023.2.0,None,2023-08-03 12h02.34.493796 -0300,
0,0,0,0,14,0.02487154,0.05358411,20.53880991700862,,,,,,,,,20.533780124998884,0.00016116700135171413,21.050364875001833,21.050364875001833,21.321247542000492,21.338357833999908,21.471294292001403,21.619550874995184,21.720930124996812,1,-14.343305165995844,,,,,,,,,P002,2023-08-03_12h02.25.158,2AFC,2023.2.0,None,2023-08-03 12h02.34.493796 -0300,
0,0,0,0,15,0.02487154,0.028712569999999996,21.723667209007544,,,,,,,,,21.721052916996996,0.0001467080001020804,22.226996375000454,22.226996375000454,22.508768416999374,22.525144708997686,22.659119042000384,22.806831417008652,23.008364875000552,1,-14.250496416003443,,,,,,,,,P002,2023-08-03_12h02.25.158,2AFC,2023.2.0,None,2023-08-03 12h02.34.493796 -0300,
0,0,0,0,16,0.02487154,0.028712569999999996,23.0137587920035,,,,,,,,,23.008487958999467,0.0001535420014988631,23.5142777919973,23.5142777919973,23.79633612500038,23.81245625000156,23.94740383399767,24.09450629200728,24.39954050000233,1,-14.14161566599796,,,,,,,,,P002,2023-08-03_12h02.25.158,2AFC,2023.2.0,None,2023-08-03 12h02.34.493796 -0300,
0,0,0,0,17,0.02487154,0.028712569999999996,24.41214504200616,,,,,,,,,24.399658334004926,0.00014362498768605292,24.905939584001317,24.905939584001317,25.198087167009362,25.200892624998232,25.33482499999809,25.486096209002426,25.751112250000006,1,-14.1791281659971,,,,,,,,,P002,2023-08-03_12h02.25.158,2AFC,2023.2.0,None,2023-08-03 12h02.34.493796 -0300,
0,0,0,0,18,0.01154435,0.0038410299999999953,25.753927666999516,,,,,,,,,25.75123862500186,0.00014837499475106597,26.257021750003332,26.257021750003332,26.53989458399883,26.552790834000916,26.68917737499578,26.837086291998276,27.20927804200619,0,-14.072766457000398,,,,,,,,,P002,2023-08-03_12h02.25.158,2AFC,2023.2.0,None,2023-08-03 12h02.34.493796 -0300,
0,0,0,0,19,0.01154435,0.015385379999999995,27.221623584002373,,,,,,,,,27.209380375003093,0.00011583299783524126,27.71549045899883,27.71549045899883,28.007541958999354,28.009997250002925,28.158080542008975,28.29483962499944,28.59394729199994,1,-14.169417457989766,,,,,,,,,P002,2023-08-03_12h02.25.158,2AFC,2023.2.0,None,2023-08-03 12h02.34.493796 -0300,
0,0,0,0,20,0.01154435,0.015385379999999995,28.598852584007545,,,,,,,,,28.594084625001415,0.00017091700283344835,29.100026416999754,29.100026416999754,29.381753542009392,29.398247709003044,29.532388417006587,29.679862125005457,29.98180120899633,1,-14.147083457995905,,,,,,,,,P002,2023-08-03_12h02.25.158,2AFC,2023.2.0,None,2023-08-03 12h02.34.493796 -0300,
0,0,0,0,21,0.00535841,0.015385379999999995,29.987150542001473,,,,,,,,,29.981935458999942,0.00014970899792388082,30.487830750003923,30.487830750003923,30.769827666998026,30.786948249995476,30.920468625001376,31.068046750006033,31.353315750006004,1,-14.162876457994571,,,,,,,,,P002,2023-08-03_12h02.25.158,2AFC,2023.2.0,None,2023-08-03 12h02.34.493796 -0300,
0,0,0,0,22,0.00535841,0.010026969999999996,31.358644791995175,,,,,,,,,31.35343595899758,0.00014404099783860147,31.85928391700145,31.85928391700145,32.141183041996555,32.15762716700556,32.291682374998345,32.43928854200931,32.744911292000324,1,-14.141525831990293,,,,,,,,,P002,2023-08-03_12h02.25.158,2AFC,2023.2.0,None,2023-08-03 12h02.34.493796 -0300,
0,0,0,0,23,0.00535841,0.010026969999999996,32.75702270900365,,,,,,,,,32.745034125007805,0.00014916699728928506,33.2507705839962,33.2507705839962,33.54298729200673,33.54545491699537,33.69351716700476,33.830094292003196,34.16561762499623,1,-14.121305124994251,,,,,,,,,P002,2023-08-03_12h02.25.158,2AFC,2023.2.0,None,2023-08-03 12h02.34.493796 -0300,
0,0,0,0,24,0.00535841,0.010026969999999996,34.17837079199671,,,,,,,,,34.16571524999745,0.00011995800014119595,34.671659458996146,34.671659458996146,34.96432508400176,34.96674158400856,35.10112000000663,35.25193479200243,35.60404283400567,1,-14.090250125009334,,,,,,,,,P002,2023-08-03_12h02.25.158,2AFC,2023.2.0,None,2023-08-03 12h02.34.493796 -0300,
0,0,0,0,25,0.00248715,0.004668559999999996,35.61660608400416,,,,,,,,,35.604164208998554,0.0001436669990653172,36.11765941699559,36.11765941699559,36.40253304199723,36.405005584005266,36.553074584007845,36.689638167008525,37.04227125000034,0,-14.104562458000146,,,,,,,,,P002,2023-08-03_12h02.25.158,2AFC,2023.2.0,None,2023-08-03 12h02.34.493796 -0300,
0,0,0,0,26,0.00248715,0.007155709999999996,37.05483658400772,,,,,,,,,37.04239683400374,0.00014274999557528645,37.55601258399838,37.55601258399838,37.840812292008195,37.84320958399621,37.99131058399507,38.12790733399743,38.510810834006406,0,-14.079217708000215,,,,,,,,,P002,2023-08-03_12h02.25.158,2AFC,2023.2.0,None,2023-08-03 12h02.34.493796 -0300,
0,0,0,0,27,0.00248715,0.009642859999999996,38.51608795899665,,,,,,,,,38.51093379200029,0.00014458400255534798,39.01680020900676,39.01680020900676,39.29874783400737,39.315023375005694,39.44893641700037,39.596748791998834,40.015819959007786,0,-14.02849154100113,,,,,,,,,P002,2023-08-03_12h02.25.158,2AFC,2023.2.0,None,2023-08-03 12h02.34.493796 -0300,
0,0,0,0,28,0.00248715,0.012130009999999997,40.02088716700382,,,,,,,,,40.01593945900095,0.0001596670044818893,40.52189962500415,40.52189962500415,40.804034000000684,40.81993033400795,40.954210084004444,41.10178070899565,41.407606459004455,1,-14.14093424899329,,,,,,,,,P002,2023-08-03_12h02.25.158,2AFC,2023.2.0,None,2023-08-03 12h02.34.493796 -0300,
0,0,0,0,29,0.00248715,0.012130009999999997,41.41956220900465,,,,,,,,,41.40772466700582,0.00014383300731424242,41.913511083999765,41.913511083999765,42.205516959002125,42.20792650000658,42.35601295900415,42.492826583998976,42.74180604200228,0,-14.214424040997983,,,,,,,,,P002,2023-08-03_12h02.25.158,2AFC,2023.2.0,None,2023-08-03 12h02.34.493796 -0300,
0,0,0,0,30,0.00248715,0.014617159999999997,42.74710433400469,,,,,,,,,42.74192920900532,0.00014733300486113876,43.24775320899789,43.24775320899789,43.52962699999625,43.5464852090081,43.679831000001286,43.827589499996975,44.24690312500752,0,-14.029608873999678,,,,,,,,,P002,2023-08-03_12h02.25.158,2AFC,2023.2.0,None,2023-08-03 12h02.34.493796 -0300,
0,0,0,0,31,0.00248715,0.017104309999999998,44.24967487499816,,,,,,,,,44.24703033400874,0.000167042002431117,44.753173500008415,44.753173500008415,45.03461841700482,45.05126716700033,45.18507400000817,45.332768250009394,45.46768537499884,1,-14.32047274899378,,,,,,,,,P002,2023-08-03_12h02.25.158,2AFC,2023.2.0,None,2023-08-03 12h02.34.493796 -0300,
0,0,0,0,32,0.00248715,0.017104309999999998,45.47297916699608,,,,,,,,,45.467810208996525,0.00015212499420158565,45.973779834006564,45.973779834006564,46.255547959008254,46.27143599999545,46.40594300000521,46.55351908400189,46.80875945900334,1,-14.19055204099277,,,,,,,,,P002,2023-08-03_12h02.25.158,2AFC,2023.2.0,None,2023-08-03 12h02.34.493796 -0300,
0,0,0,0,33,0.00115443,0.017104309999999998,46.821043333999114,,,,,,,,,46.80885504200705,0.00011812501179520041,47.31470504200843,47.31470504200843,47.606985624996014,47.60937633400317,47.75754445900384,47.89493024999683,48.009236917001544,1,-14.351454666000791,,,,,,,,,P002,2023-08-03_12h02.25.158,2AFC,2023.2.0,None,2023-08-03 12h02.34.493796 -0300,
0,0,0,0,34,0.00115443,0.015949879999999996,48.014348541997606,,,,,,,,,48.00939129199833,0.00014408299466595054,48.51519824999559,48.51519824999559,48.79726833400491,48.813391250005225,48.94854408400715,49.09536441700766,49.28349862500909,1,-14.258795707995887,,,,,,,,,P002,2023-08-03_12h02.25.158,2AFC,2023.2.0,None,2023-08-03 12h02.34.493796 -0300,
0,0,0,0,35,0.00115443,0.015949879999999996,49.29606612499629,,,,,,,,,49.28361749999749,0.00014699999883305281,49.78950991699821,49.78950991699821,50.08192100000451,50.08458416700887,50.23251025000354,50.3691087920015,50.5210931670008,1,-14.304286498983856,,,,,,,,,P002,2023-08-03_12h02.25.158,2AFC,2023.2.0,None,2023-08-03 12h02.34.493796 -0300,
0,0,0,0,36,0.00115443,0.015949879999999996,50.53360216700821,,,,,,,,,50.521210667007836,0.00013933300215285271,51.02742641700024,51.02742641700024,51.31950091700128,51.32196987500356,51.47006579200388,51.60671237499628,51.72178999999596,1,-14.352156456996454,,,,,,,,,P002,2023-08-03_12h02.25.158,2AFC,2023.2.0,None,2023-08-03 12h02.34.493796 -0300,
0,0,0,0,37,0.00115443,0.014795449999999996,51.72694633400533,,,,,,,,,51.72192195900425,0.00014370899589266628,52.22783316699497,52.22783316699497,52.50975949999702,52.52600141700532,52.66015254199738,52.80782779199944,52.99611704199924,1,-14.25718908298586,,,,,,,,,P002,2023-08-03_12h02.25.158,2AFC,2023.2.0,None,2023-08-03 12h02.34.493796 -0300,
0,0,0,0,38,0.00115443,0.014795449999999996,53.0085592920077,,,,,,,,,52.99621454199951,0.00011916601215489209,53.50208891699731,53.50208891699731,53.794513125001686,53.797424749995116,53.945052916998975,54.08175554200716,54.28060533400276,1,-14.259776581995538,,,,,,,,,P002,2023-08-03_12h02.25.158,2AFC,2023.2.0,None,2023-08-03 12h02.34.493796 -0300,
0,0,0,0,39,0.00115443,0.014795449999999996,54.283264416997554,,,,,,,,,54.280724124997505,0.0001487500121584162,54.787064208998345,54.787064208998345,55.06844283400278,55.084860750008374,55.218953500007046,55.366514167006244,55.45096441700298,1,-14.363420583002153,,,,,,,,,P002,2023-08-03_12h02.25.158,2AFC,2023.2.0,None,2023-08-03 12h02.34.493796 -0300,
0,0,0,0,40,0.00115443,0.013641019999999997,55.45326833400759,,,,,,,,,55.45109237500583,0.00013129199214745313,55.95646858400141,55.95646858400141,56.23961054200481,56.252909959002864,56.389371708995895,56.5371498750028,56.75497137500497,1,-14.230326165998122,,,,,,,,,P002,2023-08-03_12h02.25.158,2AFC,2023.2.0,None,2023-08-03 12h02.34.493796 -0300,
0,0,0,0,41,0.00115443,0.013641019999999997,56.75892550000572,,,,,,,,,56.755055959001766,0.00012008300109300762,57.26107150000462,57.26107150000462,57.54410316700523,57.55711091699777,57.69390116700379,57.84160220899503,58.10988499999803,1,-14.18526329100132,,,,,,,,,P002,2023-08-03_12h02.25.158,2AFC,2023.2.0,None,2023-08-03 12h02.34.493796 -0300,
0,0,0,0,42,0.00115443,0.013641019999999997,58.115066041995306,,,,,,,,,58.11000745900674,0.00014945899602025747,58.61606691700581,58.61606691700581,58.89800179199665,58.914361333998386,59.04885116699734,59.19608866699855,59.31676679200609,1,-14.326006998991943,,,,,,,,,P002,2023-08-03_12h02.25.158,2AFC,2023.2.0,None,2023-08-03 12h02.34.493796 -0300,
0,0,0,0,43,0.00115443,0.012486589999999997,59.329843041996355,,,,,,,,,59.316870624999865,0.00012554200657177716,59.82256241700088,59.82256241700088,60.1158201250073,60.1183489170071,60.25217516699922,60.40291454200633,60.718903458997374,0,-14.13276029098779,,,,,,,,,P002,2023-08-03_12h02.25.158,2AFC,2023.2.0,None,2023-08-03 12h02.34.493796 -0300,
0,0,0,0,44,0.00115443,0.013641019999999997,60.72425949999888,,,,,,,,,60.71903100000054,0.00014845900295767933,61.224912459001644,61.224912459001644,61.50700333400164,61.523037209000904,61.657234917001915,61.805027709007845,62.07352245900256,1,-14.18817145799403,,,,,,,,,P002,2023-08-03_12h02.25.158,2AFC,2023.2.0,None,2023-08-03 12h02.34.493796 -0300,
0,0,0,0,45,0.00115443,0.013641019999999997,62.078930542003945,,,,,,,,,62.0736403750052,0.0001470829884056002,62.590272208995884,62.590272208995884,62.861275000002934,62.87769112500246,63.01179437500832,63.159497625005315,63.3475448340032,1,-14.257727415999398,,,,,,,,,P002,2023-08-03_12h02.25.158,2AFC,2023.2.0,None,2023-08-03 12h02.34.493796 -0300,
0,0,0,0,46,0.00115443,0.013641019999999997,63.3600769170007,,,,,,,,,63.34764591700514,0.00012149999383836985,63.85340829200868,63.85340829200868,64.14604512500227,64.14845533399784,64.2965617919981,64.43315262500255,64.61540366700501,1,-14.286047665998922,,,,,,,,,P002,2023-08-03_12h02.25.158,2AFC,2023.2.0,None,2023-08-03 12h02.34.493796 -0300,
0,0,0,0,47,0.00115443,0.012486589999999997,64.6204805419984,,,,,,,,,64.61552779200429,0.00014666699280496687,65.12143724999623,65.12143724999623,65.40317883400712,65.42010833400127,65.55479562500841,65.70134579199657,65.93647404199874,1,-14.214931166003225,,,,,,,,,P002,2023-08-03_12h02.25.158,2AFC,2023.2.0,None,2023-08-03 12h02.34.493796 -0300,
0,0,0,0,48,0.00115443,0.012486589999999997,65.94153458399524,,,,,,,,,65.9365918340045,0.00016166700515896082,66.442271042004,66.442271042004,66.72449158399832,66.74066066699743,66.87465583400626,67.02260858399677,67.19368966700858,1,-14.27447508199839,,,,,,,,,P002,2023-08-03_12h02.25.158,2AFC,2023.2.0,None,2023-08-03 12h02.34.493796 -0300,
0,0,0,0,49,0.00115443,0.012486589999999997,67.2063607500022,,,,,,,,,67.19379112499882,0.00012450000212993473,67.69956716700108,67.69956716700108,67.99232537500211,67.99493091700424,68.1289820420061,68.27956654199807,68.54516883399629,1,-14.179038332003984,,,,,,,,,P002,2023-08-03_12h02.25.158,2AFC,2023.2.0,None,2023-08-03 12h02.34.493796 -0300,
0,0,0,0,50,0.00115443,0.011332159999999997,68.54772562500148,,,,,,,,,68.54529024999647,0.00016604199481662363,69.05109520899714,69.05109520899714,69.33324829200865,69.34919666699716,69.48356845900707,69.63126687500335,69.86966704200313,1,-14.206786791008199,,,,,,,,,P002,2023-08-03_12h02.25.158,2AFC,2023.2.0,None,2023-08-03 12h02.34.493796 -0300,
0,0,0,0,51,0.00115443,0.011332159999999997,69.88208654199843,,,,,,,,,69.869784584007,0.00014091699267737567,70.37550741700397,70.37550741700397,70.66802983400703,70.67042300000321,70.81856341700768,70.95536641700892,71.22112645900052,1,-14.190399665996665,,,,,,,,,P002,2023-08-03_12h02.25.158,2AFC,2023.2.0,None,2023-08-03 12h02.34.493796 -0300,
0,0,0,0,52,0.00115443,0.011332159999999997,71.22388187500474,,,,,,,,,71.22124312500819,0.00014437500794883817,71.72733404200699,71.72733404200699,72.00874499999918,72.02504695899552,72.15885695900943,72.30702462499903,72.62571950000711,1,-14.136585707994527,,,,,,,,,P002,2023-08-03_12h02.25.158,2AFC,2023.2.0,None,2023-08-03 12h02.34.493796 -0300,
0,0,0,0,53,0.00115443,0.010177729999999998,72.63114333400154,,,,,,,,,72.62584229200729,0.0001555420021759346,73.13167079200502,73.13167079200502,73.41384154200205,73.42975358400145,73.56411412500893,73.71159587500733,74.10088733400335,1,-14.056733874997008,,,,,,,,,P002,2023-08-03_12h02.25.158,2AFC,2023.2.0,None,2023-08-03 12h02.34.493796 -0300,
0,0,0,0,54,0.00115443,0.010177729999999998,74.11305179199553,,,,,,,,,74.101002084004,0.0001430830016033724,74.6140857499995,74.6140857499995,74.89904812500754,74.90206595900236,75.04953870900499,75.18611612499808,75.47178849999909,1,-14.170586331994855,,,,,,,,,P002,2023-08-03_12h02.25.158,2AFC,2023.2.0,None,2023-08-03 12h02.34.493796 -0300,
0,0,0,0,55,0.00115443,0.010177729999999998,75.48435562499799,,,,,,,,,75.47189037500357,0.0001264160091523081,75.97801787500794,75.97801787500794,76.27024762499786,76.27339216700057,76.42083933400863,76.55918345900136,76.7561967500078,0,-14.257478582992917,,,,,,,,,P002,2023-08-03_12h02.25.158,2AFC,2023.2.0,None,2023-08-03 12h02.34.493796 -0300,
0,0,0,0,56,0.00115443,0.011332159999999997,76.75866008400044,,,,,,,,,76.75629837499582,0.00012162499479018152,77.26184454200848,77.26184454200848,77.54420358399511,77.5579951670079,77.69471125000564,77.84229575000063,78.09415195899783,1,-14.205562248986098,,,,,,,,,P002,2023-08-03_12h02.25.158,2AFC,2023.2.0,None,2023-08-03 12h02.34.493796 -0300,
0,0,0,0,57,0.00115443,0.011332159999999997,78.09954170900164,,,,,,,,,78.09427070899983,0.00015408400213345885,78.61093579200679,78.61093579200679,78.88230337500863,78.89862733399787,79.03212633400108,79.18007775000297,79.48210579200531,1,-14.146652790994267,,,,,,,,,P002,2023-08-03_12h02.25.158,2AFC,2023.2.0,None,2023-08-03 12h02.34.493796 -0300,
0,0,0,0,58,0.00115443,0.011332159999999997,79.48748387499654,,,,,,,,,79.48222829200677,0.00016237499949056655,79.98785216700344,79.98785216700344,80.26990300000762,80.28622908399848,80.42005037500348,80.56805254200299,80.73997837500065,1,-14.27295887398941,,,,,,,,,P002,2023-08-03_12h02.25.158,2AFC,2023.2.0,None,2023-08-03 12h02.34.493796 -0300,
0,0,0,0,59,0.00115443,0.010177729999999998,80.7520530000038,,,,,,,,,80.74008375000267,0.00011812499724328518,81.24641604200588,81.24641604200588,81.53800654200313,81.54040266700031,81.68854658400232,81.82513120899966,82.00722054200014,1,-14.283492623988423,,,,,,,,,P002,2023-08-03_12h02.25.158,2AFC,2023.2.0,None,2023-08-03 12h02.34.493796 -0300,
0,0,0,0,60,0.00115443,0.010177729999999998,82.01196966700081,,,,,,,,,82.00731741699565,0.00012229199637658894,82.51323516700359,82.51323516700359,82.79583250000724,82.80904354200175,82.94557558400265,83.09331429199665,83.2815000420087,1,-14.25741358299274,,,,,,,,,P002,2023-08-03_12h02.25.158,2AFC,2023.2.0,None,2023-08-03 12h02.34.493796 -0300,
0,0,0,0,61,0.00115443,0.010177729999999998,83.2940227920044,,,,,,,,,83.2815982500033,0.00011908399756066501,83.78739054199832,83.78739054199832,84.07987450000655,84.08227358400472,84.23051083400787,84.36713483399944,84.38579141700757,1,-14.43741625000257,,,,,,,,,P002,2023-08-03_12h02.25.158,2AFC,2023.2.0,None,2023-08-03 12h02.34.493796 -0300,
0,0,0,0,62,0.00115443,0.009023299999999998,84.39779070900113,,,,,,,,,84.3858922500076,0.00012083299225196242,84.8922281670093,84.8922281670093,85.18357595900306,85.18697654199786,85.33410362500581,85.47122449999733,85.65280104200065,1,-14.286053332994925,,,,,,,,,P002,2023-08-03_12h02.25.158,2AFC,2023.2.0,None,2023-08-03 12h02.34.493796 -0300,
0,0,0,0,63,0.00115443,0.009023299999999998,85.65816141699906,,,,,,,,,85.65291558399622,0.00014216599811334163,86.15898212500906,86.15898212500906,86.44071554200491,86.45710875000805,86.59130679200462,86.73881979200814,87.49238654199871,0,-13.696956375002628,,,,,,,,,P002,2023-08-03_12h02.25.158,2AFC,2023.2.0,None,2023-08-03 12h02.34.493796 -0300,
0,0,0,0,64,0.00115443,0.010177729999999998,87.4977423340024,,,,,,,,,87.49250791700615,0.0001418330066371709,87.99838745899615,87.99838745899615,88.28070395899704,88.29663125000661,88.4306515000062,88.57834766700398,88.79698425000242,0,-14.230533791007474,,,,,,,,,P002,2023-08-03_12h02.25.158,2AFC,2023.2.0,None,2023-08-03 12h02.34.493796 -0300,
0,0,0,0,65,0.00115443,0.011332159999999997,88.8018145840033,,,,,,,,,88.79708595899865,0.00011929198808502406,89.30271358400933,89.30271358400933,89.58488220900472,89.60095145899686,89.73511491699901,89.88282737499685,90.43887587499921,1,-13.889329749988974,,,,,,,,,P002,2023-08-03_12h02.25.158,2AFC,2023.2.0,None,2023-08-03 12h02.34.493796 -0300,
0,0,0,0,66,0.00115443,0.011332159999999997,90.45134075000533,,,,,,,,,90.43899808400602,0.0001499170030001551,90.94482212500589,90.94482212500589,91.23733000000357,91.2399192090088,91.38783883400902,91.52501579200907,91.77355891700427,1,-14.217951457991148,,,,,,,,,P002,2023-08-03_12h02.25.158,2AFC,2023.2.0,None,2023-08-03 12h02.34.493796 -0300,
0,0,0,0,67,0.00115443,0.011332159999999997,91.77893349999795,,,,,,,,,91.77367750000849,0.00014483298582490534,92.27942274999805,92.27942274999805,92.56245633399521,92.57522329200583,92.71186629199656,92.85956691700267,93.16157737500907,1,-14.145667790988227,,,,,,,,,P002,2023-08-03_12h02.25.158,2AFC,2023.2.0,None,2023-08-03 12h02.34.493796 -0300,
0,0,0,0,68,0.00115443,0.010177729999999998,93.16706337500364,,,,,,,,,93.16171095900063,0.0001488330017309636,93.66771974999574,93.66771974999574,93.94973970900173,93.96594712500519,94.09988466699724,94.24754629199742,94.7839197919966,0,-13.914836249983637,,,,,,,,,P002,2023-08-03_12h02.25.158,2AFC,2023.2.0,None,2023-08-03 12h02.34.493796 -0300,
0,0,0,0,69,0.00115443,0.011332159999999997,94.78911337500904,,,,,,,,,94.78404987500107,0.00014854100299999118,95.28969783399953,95.28969783399953,95.57165504200384,95.58788820900372,95.72212295900681,95.86961404200702,96.30850883400126,1,-14.007843332001357,,,,,,,,,P002,2023-08-03_12h02.25.158,2AFC,2023.2.0,None,2023-08-03 12h02.34.493796 -0300,
0,0,0,0,70,0.00115443,0.011332159999999997,96.32127045899688,,,,,,,,,96.30862912500743,0.00015008400077931583,96.81454016700445,96.81454016700445,97.10706720899907,97.11026416700042,97.24415616699844,97.39448137499858,97.77717620899784,0,-14.066731456987327,,,,,,,,,P002,2023-08-03_12h02.25.158,2AFC,2023.2.0,None,2023-08-03 12h02.34.493796 -0300,
0,0,0,0,71,0.00115443,0.012486589999999997,97.78238037500705,,,,,,,,,97.7772976670094,0.00015620799968019128,98.28323345900571,98.28323345900571,98.56493883399526,98.58141595900815,98.71544979199825,98.8630862919963,98.94779425000888,1,-14.369393790999311,,,,,,,,,P002,2023-08-03_12h02.25.158,2AFC,2023.2.0,None,2023-08-03 12h02.34.493796 -0300,
0,0,0,0,72,0.00115443,0.012486589999999997,98.95252175000496,,,,,,,,,98.94790100000682,0.0001250000059371814,99.4537662500079,99.4537662500079,99.73552170900803,99.75168591699912,99.8861069590057,100.03364629199496,100.08790641700034,1,-14.390885581990005,,,,,,,,,P002,2023-08-03_12h02.25.158,2AFC,2023.2.0,None,2023-08-03 12h02.34.493796 -0300,
0,0,0,0,73,0.00115443,0.012486589999999997,100.10058300000674,,,,,,,,,100.08800541699748,0.00012141700426582247,100.6017642920051,100.6017642920051,100.88657200000307,100.88896399999794,101.02322708400607,101.1737019590073,101.28890483400028,1,-14.33576262499264,,,,,,,,,P002,2023-08-03_12h02.25.158,2AFC,2023.2.0,None,2023-08-03 12h02.34.493796 -0300,
0,0,0,0,74,0.00115443,0.011332159999999997,101.29411208399688,,,,,,,,,101.28902958400431,0.0001429579860996455,101.79489745899627,101.79489745899627,102.07677087500633,102.09298766699794,102.22716158399999,102.37485933399876,102.45948175000376,1,-14.369144790995051,,,,,,,,,P002,2023-08-03_12h02.25.158,2AFC,2023.2.0,None,2023-08-03 12h02.34.493796 -0300,
0,0,0,0,75,0.00115443,0.011332159999999997,102.46459550000145,,,,,,,,,102.45961125000031,0.0001565830025356263,102.9654068749951,102.9654068749951,103.24794279200432,103.26112012499652,103.39790091699979,103.54556691700418,103.80096079199575,1,-14.189896290990873,,,,,,,,,P002,2023-08-03_12h02.25.158,2AFC,2023.2.0,None,2023-08-03 12h02.34.493796 -0300,
0,0,0,0,76,0.00115443,0.011332159999999997,103.81309516700276,,,,,,,,,103.80108095900505,0.00015104099293239415,104.30693691699707,104.30693691699707,104.59904429200105,104.6015989590087,104.74960100000317,104.88695800000278,105.00133370900585,1,-14.34930187399732,,,,,,,,,P002,2023-08-03_12h02.25.158,2AFC,2023.2.0,None,2023-08-03 12h02.34.493796 -0300,
0,0,0,0,77,0.00115443,0.010177729999999998,105.00663783399796,,,,,,,,,105.00145316700218,0.0001502920058555901,105.50700745900394,105.50700745900394,105.78923591700732,105.80545562499901,105.93977966700913,106.08748795899737,106.30587333400035,1,-14.23473745699448,,,,,,,,,P002,2023-08-03_12h02.25.158,2AFC,2023.2.0,None,2023-08-03 12h02.34.493796 -0300,
0,0,0,0,78,0.00115443,0.010177729999999998,106.31087066700275,,,,,,,,,106.30598937500326,0.00014929099415894598,106.8122842090088,106.8122842090088,107.09375283400004,107.11022895900533,107.24412483400374,107.39179116699961,107.5599216670089,1,-14.278280665996135,,,,,,,,,P002,2023-08-03_12h02.25.158,2AFC,2023.2.0,None,2023-08-03 12h02.34.493796 -0300,
0,0,0,0,79,0.00115443,0.010177729999999998,107.56238816700352,,,,,,,,,107.56003704199975,0.00014320800255518407,108.06573141700937,108.06573141700937,108.34789637500944,108.36430033399665,108.49820312499651,108.64606762499898,108.96478537500661,0,-14.139100333006354,,,,,,,,,P002,2023-08-03_12h02.25.158,2AFC,2023.2.0,None,2023-08-03 12h02.34.493796 -0300,
0,0,0,0,80,0.00115443,0.011332159999999997,108.97021083399886,,,,,,,,,108.96491654199781,0.00014179199934005737,109.47088974999497,109.47088974999497,109.7528095000016,109.76889741700143,109.9031218339951,110.05071241699625,110.33611250000831,0,-14.171194331996958,,,,,,,,,P002,2023-08-03_12h02.25.158,2AFC,2023.2.0,None,2023-08-03 12h02.34.493796 -0300,
0,0,0,0,81,0.00115443,0.012486589999999997,110.34139179199701,,,,,,,,,110.33624583399796,0.00014379099593497813,110.84210204200645,110.84210204200645,111.12394470900472,111.14013924999745,111.2741528750048,111.4220654170058,111.72409537500062,1,-14.14544179099903,,,,,,,,,P002,2023-08-03_12h02.25.158,2AFC,2023.2.0,None,2023-08-03 12h02.34.493796 -0300,
0,0,0,0,82,0.00115443,0.012486589999999997,111.72670025000116,,,,,,,,,111.72422891699534,0.0001460839994251728,112.22996929200599,112.22996929200599,112.51230920900707,112.52579241700005,112.66244162499788,112.8100965420017,113.04857675000676,1,-14.207343082991429,,,,,,,,,P002,2023-08-03_12h02.25.158,2AFC,2023.2.0,None,2023-08-03 12h02.34.493796 -0300,
0,0,0,0,83,0.00115443,0.012486589999999997,113.06103774999792,,,,,,,,,113.04869275000237,0.0001413749996572733,113.56214829199598,113.56214829199598,113.84686570899794,113.84952170900942,113.99758237499918,114.1340821670019,114.4501194589975,1,-14.148156123992521,,,,,,,,,P002,2023-08-03_12h02.25.158,2AFC,2023.2.0,None,2023-08-03 12h02.34.493796 -0300,
0,0,0,0,84,0.00115443,0.011332159999999997,114.45547812500445,,,,,,,,,114.45024258400372,0.00015725000412203372,114.95664016700175,114.95664016700175,115.23816920899844,115.25401550000242,115.38832250000269,115.53587287499977,115.7039777500031,0,-14.278253124997718,,,,,,,,,P002,2023-08-03_12h02.25.158,2AFC,2023.2.0,None,2023-08-03 12h02.34.493796 -0300,
0,0,0,0,85,0.00115443,0.012486589999999997,115.70660970899917,,,,,,,,,115.7041016669973,0.00016850000247359276,116.2100000000064,116.2100000000064,116.49205016699852,116.50883045900264,116.64265916700242,116.79025695900782,117.05880199999956,1,-14.182436498987954,,,,,,,,,P002,2023-08-03_12h02.25.158,2AFC,2023.2.0,None,2023-08-03 12h02.34.493796 -0300,
0,0,0,0,86,0.00115443,0.012486589999999997,117.06397758399544,,,,,,,,,117.05892433400732,0.000155083995196037,117.57568666699808,117.57568666699808,117.84650637500454,117.86298166699999,117.99716833399725,118.14478970899654,118.3463773340045,1,-14.25544841599185,,,,,,,,,P002,2023-08-03_12h02.25.158,2AFC,2023.2.0,None,2023-08-03 12h02.34.493796 -0300,
0,0,0,0,87,0.00115443,0.012486589999999997,118.35153891700611,,,,,,,,,118.34649754200655,0.00014954200014472008,118.85274933400797,118.85274933400797,119.13434383399726,119.1506203339959,119.28465254200273,119.43251162499655,119.58384895899508,1,-14.306083582996507,,,,,,,,,P002,2023-08-03_12h02.25.158,2AFC,2023.2.0,None,2023-08-03 12h02.34.493796 -0300,
0,0,0,0,88,0.00115443,0.011332159999999997,119.58907879200706,,,,,,,,,119.58397587500804,0.00014833400200586766,120.10077570899739,120.10077570899739,120.37181466699985,120.38789800000086,120.52221637500043,120.6698365839984,121.0890484170086,0,-14.035140665990184,,,,,,,,,P002,2023-08-03_12h02.25.158,2AFC,2023.2.0,None,2023-08-03 12h02.34.493796 -0300,
0,0,0,0,89,0.00115443,0.012486589999999997,121.09444783399522,,,,,,,,,121.08917562500574,0.00014879199443385005,121.60583600000245,121.60583600000245,121.87699208399863,121.89301141700707,122.02736845900654,122.17503254199983,122.46031745900109,1,-14.166256706987042,,,,,,,,,P002,2023-08-03_12h02.25.158,2AFC,2023.2.0,None,2023-08-03 12h02.34.493796 -0300,
0,0,0,0,90,0.00115443,0.012486589999999997,122.46557816700079,,,,,,,,,122.46044020900445,0.00015212499420158565,122.96610583399888,122.96610583399888,123.2485105000087,123.26199979199737,123.39856899999722,123.54629829199985,123.89858216700668,1,-14.09822112400434,,,,,,,,,P002,2023-08-03_12h02.25.158,2AFC,2023.2.0,None,2023-08-03 12h02.34.493796 -0300,
0,0,0,0,91,0.00115443,0.012486589999999997,123.90400266699726,,,,,,,,,123.89869779199944,0.0001433329889550805,124.4048638749955,124.4048638749955,124.68652425000619,124.70304191700416,124.83740812500764,124.98450570899877,125.31985162499768,1,-14.120076957988204,,,,,,,,,P002,2023-08-03_12h02.25.158,2AFC,2023.2.0,None,2023-08-03 12h02.34.493796 -0300,
0,0,0,0,92,0.00115443,0.011332159999999997,125.3246704589983,,,,,,,,,125.31998558400664,0.00014150000060908496,125.82571274999646,125.82571274999646,126.10775912500685,126.12411512499966,126.25809641700471,126.40583770899684,126.95882308400178,1,-13.897496000005049,,,,,,,,,P002,2023-08-03_12h02.25.158,2AFC,2023.2.0,None,2023-08-03 12h02.34.493796 -0300,
0,0,0,0,93,0.00115443,0.011332159999999997,126.96411091700429,,,,,,,,,126.95893687500211,0.00014191700029186904,127.46492820899584,127.46492820899584,127.74712324999564,127.76298112500808,127.89721704200201,128.04441304200736,128.2462866249989,0,-14.255010790991946,,,,,,,,,P002,2023-08-03_12h02.25.158,2AFC,2023.2.0,None,2023-08-03 12h02.34.493796 -0300,
0,0,0,0,94,0.00115443,0.012486589999999997,128.25161837499763,,,,,,,,,128.2464476669993,0.00014816700422670692,128.75212337500125,128.75212337500125,129.03425491700182,129.051426792008,129.18528312499984,129.33249699999578,129.6177509590052,1,-14.169947624002816,,,,,,,,,P002,2023-08-03_12h02.25.158,2AFC,2023.2.0,None,2023-08-03 12h02.34.493796 -0300,
0,0,0,0,95,0.00115443,0.012486589999999997,129.62269250000827,,,,,,,,,129.61788429200533,0.00014504199498333037,130.123707250008,130.123707250008,130.40563337500498,130.42198949999874,130.55586579200462,130.70376941699942,130.92199520900613,1,-14.234735415986506,,,,,,,,,P002,2023-08-03_12h02.25.158,2AFC,2023.2.0,None,2023-08-03 12h02.34.493796 -0300,
0,0,0,0,96,0.00115443,0.012486589999999997,130.9266037089983,,,,,,,,,130.92209370899945,0.00012395800149533898,131.427917042005,131.427917042005,131.7100294999982,131.72619508400385,131.8603744590073,132.00810658400587,132.17639004200464,1,-14.280308832996525,,,,,,,,,P002,2023-08-03_12h02.25.158,2AFC,2023.2.0,None,2023-08-03 12h02.34.493796 -0300,
0,0,0,0,97,0.00115443,0.011332159999999997,132.18182916700607,,,,,,,,,132.17651841700717,0.00015079100558068603,132.68232854199596,132.68232854199596,132.9642646669963,132.9805009170086,133.1144378750032,133.26234850000765,133.36622199999692,1,-14.341061415994773,,,,,,,,,P002,2023-08-03_12h02.25.158,2AFC,2023.2.0,None,2023-08-03 12h02.34.493796 -0300,
0,0,0,0,98,0.00115443,0.011332159999999997,133.37935425000614,,,,,,,,,133.36631870899873,0.00011991600331384689,133.87215720899985,133.87215720899985,134.16531345900148,134.16799937500036,134.30212675000075,134.4531199589983,134.65156574999855,1,-14.246405915997457,,,,,,,,,P002,2023-08-03_12h02.25.158,2AFC,2023.2.0,None,2023-08-03 12h02.34.493796 -0300,
0,0,0,0,99,0.00115443,0.011332159999999997,134.654329166995,,,,,,,,,134.65168587499647,0.00014874999760650098,135.15746604200103,135.15746604200103,135.43917808400874,135.45554245900712,135.58968066700618,135.73736091700266,136.07285329200386,0,-14.117560790997231,,,,,,,,,P002,2023-08-03_12h02.25.158,2AFC,2023.2.0,None,2023-08-03 12h02.34.493796 -0300,
0,0,0,0,,,,,,,,,,,,,,,,,,,,,,,,136.07300733400916,136.07952170900535,166.05928850000782,166.07535837500473,172.5830538750015,space,-8.06937949899293,None,P002,2023-08-03_12h02.25.158,2AFC,2023.2.0,None,2023-08-03 12h02.34.493796 -0300,
