Blocks.thisRepN,Blocks.thisTrialN,Blocks.thisN,Blocks.thisIndex,staircase.thisTrialN,staircase.stepSize,staircase.intensity,thisRow.t,notes,instr.started,instructions.started,ready.started,instr.stopped,ready.keys,ready.rt,ready.duration,contrast.started,ISI_2.started,target_2.started,fixation_2.started,target_2.stopped,noise_2.started,resp_2.started,noise_2.stopped,contrast.stopped,staircase.response,resp_2.rt,resting.started,Rest.started,ready_2.started,Rest.stopped,resting.stopped,ready_2.keys,ready_2.rt,ready_2.duration,participant,date,expName,psychopyVersion,frameRate,expStart,
,,,,,,,,,0.0039255840092664585,0.007886000006692484,0.007886000006692484,20.293297209005686,a,-26.75088666701049,None,,,,,,,,,,,,,,,,,,,,P004,2023-08-03_13h51.39.670,2AFC,2023.2.0,None,2023-08-03 13h52.19.032234 -0300,
0,0,0,0,0,0.53584112,0.5,20.307401917001698,,,,,,,,,20.294762000004994,0.001642083007027395,20.804033250009525,20.804033250009525,21.09236704200157,21.09236704200157,21.243772792004165,21.38966695900308,21.80901204200927,1,-46.438529082995956,,,,,,,,,P004,2023-08-03_13h51.39.670,2AFC,2023.2.0,None,2023-08-03 13h52.19.032234 -0300,
0,0,0,0,1,0.24871541,0.001,21.81521724999766,,,,,,,,,21.809147167004994,0.00015779200475662947,22.315401625004597,22.315401625004597,22.61283320900111,22.596787625006982,22.74669912501122,22.894442333999905,23.267602125008125,0,-46.47899374998815,,,,,,,,,P004,2023-08-03_13h51.39.670,2AFC,2023.2.0,None,2023-08-03 13h52.19.032234 -0300,
0,0,0,0,2,0.24871541,0.24971541,23.279248584003653,,,,,,,,,23.26773312500154,0.00016095899627543986,23.77391983399866,23.77391983399866,24.06884891699883,24.06542187499872,24.2159385420091,24.352697000009357,24.534799708999344,1,-46.68690924900875,,,,,,,,,P004,2023-08-03_13h51.39.670,2AFC,2023.2.0,None,2023-08-03 13h52.19.032234 -0300,
0,0,0,0,3,0.24871541,0.24971541,24.540627250011312,,,,,,,,,24.534920000005513,0.00016362499445676804,25.041592375011533,25.041592375011533,25.33904341699963,25.32255175001046,25.473004416999174,25.62067200000456,25.905945334001444,1,-46.572116832991014,,,,,,,,,P004,2023-08-03_13h51.39.670,2AFC,2023.2.0,None,2023-08-03 13h52.19.032234 -0300,
0,0,0,0,4,0.24871541,0.24971541,25.911942292004824,,,,,,,,,25.90606387500884,0.00014662501052953303,26.41211045900127,26.41211045900127,26.710110459011048,26.693787417010753,26.844318458999624,26.99194291701133,27.230216084004496,1,-46.615214457997354,,,,,,,,,P004,2023-08-03_13h51.39.670,2AFC,2023.2.0,None,2023-08-03 13h52.19.032234 -0300,
0,0,0,0,5,0.11544347,0.24971541,27.242730375000974,,,,,,,,,27.230341500006034,0.0001489160058554262,27.736327959006303,27.736327959006303,28.031129750001128,28.028689584010863,28.17934258400055,28.31592695901054,28.668660916999215,1,-46.51171362500463,,,,,,,,,P004,2023-08-03_13h51.39.670,2AFC,2023.2.0,None,2023-08-03 13h52.19.032234 -0300,
0,0,0,0,6,0.11544347,0.13427193999999998,28.680752583997673,,,,,,,,,28.668788875002065,0.00014545800513587892,29.175171374998172,29.175171374998172,29.469632667009137,29.466907916998025,29.61742895899806,29.754805167001905,30.003115875006188,1,-46.62086812501366,,,,,,,,,P004,2023-08-03_13h51.39.670,2AFC,2023.2.0,None,2023-08-03 13h52.19.032234 -0300,
0,0,0,0,7,0.11544347,0.13427193999999998,30.00896904199908,,,,,,,,,30.003248584005632,0.00014487499720416963,30.50904516701121,30.50904516701121,30.807933459000196,30.791055709007196,30.94186620900291,31.089137209011824,31.357579959003488,1,-46.59674233300029,,,,,,,,,P004,2023-08-03_13h51.39.670,2AFC,2023.2.0,None,2023-08-03 13h52.19.032234 -0300,
0,0,0,0,8,0.11544347,0.13427193999999998,31.363278959004674,,,,,,,,,31.357701041997643,0.00015479201101697981,31.863597208997817,31.863597208997817,32.16215179199935,32.1455766250001,32.29604441700212,32.44366579200141,32.745747875000234,1,-46.553884833003394,,,,,,,,,P004,2023-08-03_13h51.39.670,2AFC,2023.2.0,None,2023-08-03 13h52.19.032234 -0300,
0,0,0,0,9,0.11544347,0.13427193999999998,32.75122395899962,,,,,,,,,32.74586612499843,0.00015229100245051086,33.25232183400658,33.25232183400658,33.550196000011056,33.53377837500011,33.68413070900715,33.83166979200905,34.06989170900488,1,-46.61527979200764,,,,,,,,,P004,2023-08-03_13h51.39.670,2AFC,2023.2.0,None,2023-08-03 13h52.19.032234 -0300,
0,0,0,0,10,0.11544347,0.018828469999999972,34.082634125006734,,,,,,,,,34.07002366700908,0.00015491699741687626,34.57703000000038,34.57703000000038,34.87114137499884,34.86841333399934,35.01909233399783,35.15566708400729,35.50810958399961,1,-46.51202100000228,,,,,,,,,P004,2023-08-03_13h51.39.670,2AFC,2023.2.0,None,2023-08-03 13h52.19.032234 -0300,
0,0,0,0,11,0.11544347,0.018828469999999972,35.52050704200519,,,,,,,,,35.50823662499897,0.00015383299614768475,36.01410970900906,36.01410970900906,36.3090757500031,36.306637542002136,36.45719091700448,36.59423208401131,36.90970400000515,1,-46.555748625003616,,,,,,,,,P004,2023-08-03_13h51.39.670,2AFC,2023.2.0,None,2023-08-03 13h52.19.032234 -0300,
0,0,0,0,12,0.11544347,0.018828469999999972,36.91574079199927,,,,,,,,,36.9098241669999,0.00014354199811350554,37.41571358400688,37.41571358400688,37.7138168750098,37.69755708400044,37.84800883400021,37.99566100000811,38.30149541700666,1,-46.54662229100359,,,,,,,,,P004,2023-08-03_13h51.39.670,2AFC,2023.2.0,None,2023-08-03 13h52.19.032234 -0300,
0,0,0,0,13,0.11544347,0.018828469999999972,38.31324358400889,,,,,,,,,38.30161545900046,0.00013949999993201345,38.80746900000668,38.80746900000668,39.10188533400651,39.09922316700977,39.24990575000993,39.38659366700449,39.67213841700868,1,-46.578801083000144,,,,,,,,,P004,2023-08-03_13h51.39.670,2AFC,2023.2.0,None,2023-08-03 13h52.19.032234 -0300,
0,0,0,0,14,0.11544347,0.001,39.6846885420091,,,,,,,,,39.67226479201054,0.00015241600340232253,40.17843929200899,40.17843929200899,40.47327541701088,40.47063012501167,40.607651375001296,40.75779087500996,41.22416895900096,1,-46.38400929099589,,,,,,,,,P004,2023-08-03_13h51.39.670,2AFC,2023.2.0,None,2023-08-03 13h52.19.032234 -0300,
0,0,0,0,15,0.11544347,0.001,41.226840458999504,,,,,,,,,41.22430208401056,0.000145500001963228,41.73044850000588,41.73044850000588,42.029504625010304,42.012177124997834,42.16249191699899,42.31019179199939,42.66615533400909,0,-46.49693604098866,,,,,,,,,P004,2023-08-03_13h51.39.670,2AFC,2023.2.0,None,2023-08-03 13h52.19.032234 -0300,
0,0,0,0,16,0.05358411,0.001,42.67815508400963,,,,,,,,,42.66627812500519,0.00014766700041946024,43.17239287499979,43.17239287499979,43.466564834001474,43.46409904200118,43.61461204200168,43.75096874999872,44.08396270900266,0,-46.53367329199682,,,,,,,,,P004,2023-08-03_13h51.39.670,2AFC,2023.2.0,None,2023-08-03 13h52.19.032234 -0300,
0,0,0,0,17,0.05358411,0.05458411,44.089761167007964,,,,,,,,,44.084102209002594,0.00014304200885817409,44.59020008399966,44.59020008399966,44.887975250007,44.871843959001126,45.022354583998094,45.16990733399871,45.455206917002215,1,-46.56880195799749,,,,,,,,,P004,2023-08-03_13h51.39.670,2AFC,2023.2.0,None,2023-08-03 13h52.19.032234 -0300,
0,0,0,0,18,0.05358411,0.05458411,45.46112037501007,,,,,,,,,45.455340583997895,0.0001604999997653067,45.961637209009496,45.961637209009496,46.259368917002575,46.243358417006675,46.39351016700675,46.54117979200964,46.7595652500022,1,-46.63506937400962,,,,,,,,,P004,2023-08-03_13h51.39.670,2AFC,2023.2.0,None,2023-08-03 13h52.19.032234 -0300,
0,0,0,0,19,0.05358411,0.05458411,46.76277566701174,,,,,,,,,46.759682125004474,0.00014491700858343393,47.27643845901184,47.27643845901184,47.563659792009275,47.54747429200506,47.698028917002375,47.84560162499838,48.0473044590035,1,-46.65668200000073,,,,,,,,,P004,2023-08-03_13h51.39.670,2AFC,2023.2.0,None,2023-08-03 13h52.19.032234 -0300,
0,0,0,0,20,0.02487154,0.05458411,48.052565667007,,,,,,,,,48.04740762501024,0.00012533301196526736,48.55313975000172,48.55313975000172,48.84892404200218,48.835488209006144,48.985527417011326,49.1331846670073,49.3892906250112,1,-46.596134833002,,,,,,,,,P004,2023-08-03_13h51.39.670,2AFC,2023.2.0,None,2023-08-03 13h52.19.032234 -0300,
0,0,0,0,21,0.02487154,0.029712569999999997,49.40086658400833,,,,,,,,,49.389423417000216,0.0001507920096628368,49.895398917011335,49.895398917011335,50.18962370901136,50.186824083997635,50.33740795899939,50.47439091700653,50.65611812499992,1,-46.68744745799631,,,,,,,,,P004,2023-08-03_13h51.39.670,2AFC,2023.2.0,None,2023-08-03 13h52.19.032234 -0300,
0,0,0,0,22,0.02487154,0.029712569999999997,50.66183983400697,,,,,,,,,50.65623620900442,0.00014512499910779297,51.162194875010755,51.162194875010755,51.4603109590098,51.44390920900332,51.594752834003884,51.74195029200928,51.913902291998966,1,-46.682419207994826,,,,,,,,,P004,2023-08-03_13h51.39.670,2AFC,2023.2.0,None,2023-08-03 13h52.19.032234 -0300,
0,0,0,0,23,0.02487154,0.029712569999999997,51.925761959006195,,,,,,,,,51.914023208999424,0.00014479200763162225,52.420133375009755,52.420133375009755,52.71456000000762,52.71190416700847,52.8624157919985,52.99900583400449,53.114509749997524,1,-46.75935916599701,,,,,,,,,P004,2023-08-03_13h51.39.670,2AFC,2023.2.0,None,2023-08-03 13h52.19.032234 -0300,
0,0,0,0,24,0.02487154,0.029712569999999997,53.11993616700056,,,,,,,,,53.114633334000246,0.00015620900376234204,53.62143841700163,53.62143841700163,53.91847183401114,53.9022878750111,54.05259666701022,54.20036241700291,54.35179687500931,1,-46.71214154199697,,,,,,,,,P004,2023-08-03_13h51.39.670,2AFC,2023.2.0,None,2023-08-03 13h52.19.032234 -0300,
0,0,0,0,25,0.02487154,0.004841029999999996,54.35767904200475,,,,,,,,,54.35193208399869,0.00015841599088162184,54.85792900000524,54.85792900000524,55.15595970900904,55.1397015840048,55.290284375005285,55.43787550000707,55.6561533339991,0,-46.64532766600314,,,,,,,,,P004,2023-08-03_13h51.39.670,2AFC,2023.2.0,None,2023-08-03 13h52.19.032234 -0300,
0,0,0,0,26,0.01154435,0.004841029999999996,55.661952667011064,,,,,,,,,55.656271459010895,0.0001561660028528422,56.16241204200196,56.16241204200196,56.46026858400728,56.44409287501185,56.59428200000548,56.742208791998564,57.0440450419992,0,-46.553869166004006,,,,,,,,,P004,2023-08-03_13h51.39.670,2AFC,2023.2.0,None,2023-08-03 13h52.19.032234 -0300,
0,0,0,0,27,0.01154435,0.016385379999999998,57.04969012500078,,,,,,,,,57.04418908400112,0.00015129199891816825,57.55035391700221,57.55035391700221,57.845889042000636,57.83281479201105,57.98262983400491,58.130173084005946,58.34866354199767,1,-46.63658299999952,,,,,,,,,P004,2023-08-03_13h51.39.670,2AFC,2023.2.0,None,2023-08-03 13h52.19.032234 -0300,
0,0,0,0,28,0.01154435,0.016385379999999998,58.35434295900632,,,,,,,,,58.34878991699952,0.0001532500027678907,58.85463900001196,58.85463900001196,59.152781500000856,59.136966792008025,59.28669691699906,59.43464954200317,59.67285945900949,1,-46.61381408300076,,,,,,,,,P004,2023-08-03_13h51.39.670,2AFC,2023.2.0,None,2023-08-03 13h52.19.032234 -0300,
0,0,0,0,29,0.01154435,0.016385379999999998,59.68525975001103,,,,,,,,,59.67296595900552,0.00012891700316686183,60.179372124999645,60.179372124999645,60.47455983400869,60.47141704200476,60.621916292002425,60.75867741700495,60.977862416999415,1,-46.64399283299281,,,,,,,,,P004,2023-08-03_13h51.39.670,2AFC,2023.2.0,None,2023-08-03 13h52.19.032234 -0300,
0,0,0,0,30,0.00535841,0.016385379999999998,60.98986862500897,,,,,,,,,60.97798516700277,0.00015054199320729822,61.48399145899748,61.48399145899748,61.77847387500515,61.775847500000964,61.92643412500911,62.06309833400883,62.261625750004896,1,-46.66542479099007,,,,,,,,,P004,2023-08-03_13h51.39.670,2AFC,2023.2.0,None,2023-08-03 13h52.19.032234 -0300,
0,0,0,0,31,0.00535841,0.011026969999999997,62.264205708997906,,,,,,,,,62.26175170901115,0.0001425829977961257,62.76783129200339,62.76783129200339,63.06589300000633,63.050003666998236,63.2008586669981,63.34787241699814,63.54971550000482,1,-46.65954354099813,,,,,,,,,P004,2023-08-03_13h51.39.670,2AFC,2023.2.0,None,2023-08-03 13h52.19.032234 -0300,
0,0,0,0,32,0.00535841,0.011026969999999997,63.55553720900207,,,,,,,,,63.549861749997945,0.00016304200107697397,64.05630125000607,64.05630125000607,64.35359470899857,64.33729716700327,64.48783633401035,64.63541316700866,64.85388454201166,0,-46.637540542011266,,,,,,,,,P004,2023-08-03_13h51.39.670,2AFC,2023.2.0,None,2023-08-03 13h52.19.032234 -0300,
0,0,0,0,33,0.00535841,0.011026969999999997,64.85944504200597,,,,,,,,,64.85400883400871,0.00014470900350715965,65.35995516700496,65.35995516700496,65.65795779200562,65.64226558399969,65.79190991701034,65.93986116700398,66.29212004200963,1,-46.50479625001026,,,,,,,,,P004,2023-08-03_13h51.39.670,2AFC,2023.2.0,None,2023-08-03 13h52.19.032234 -0300,
0,0,0,0,34,0.00535841,0.011026969999999997,66.29752929200185,,,,,,,,,66.29223754200211,0.00014558299153577536,66.79812725000374,66.79812725000374,67.09705650000251,67.08008662500652,67.23102866701083,67.3781385839975,67.46268950001104,0,-46.77252170801512,,,,,,,,,P004,2023-08-03_13h51.39.670,2AFC,2023.2.0,None,2023-08-03 13h52.19.032234 -0300,
0,0,0,0,35,0.00248715,0.011026969999999997,67.4686329170072,,,,,,,,,67.46283079200657,0.00014879200898576528,67.96884591699927,67.96884591699927,68.26789333400666,68.25108662500861,68.40102562500397,68.54866154200863,68.85394066700246,0,-46.54805879101332,,,,,,,,,P004,2023-08-03_13h51.39.670,2AFC,2023.2.0,None,2023-08-03 13h52.19.032234 -0300,
0,0,0,0,36,0.00248715,0.013514119999999998,68.86621362500591,,,,,,,,,68.85406800000055,0.00014158300473354757,69.36009133400512,69.36009133400512,69.65575020899996,69.65238129200588,69.80289950000588,69.94036891699943,70.09110783399956,1,-46.71210458299902,,,,,,,,,P004,2023-08-03_13h51.39.670,2AFC,2023.2.0,None,2023-08-03 13h52.19.032234 -0300,
0,0,0,0,37,0.00248715,0.013514119999999998,70.10370458400575,,,,,,,,,70.09120837500086,0.00012054199760314077,70.5973874170013,70.5973874170013,70.89237695900374,70.88984095900378,71.02646375000768,71.17698733400903,71.22522262499842,1,-46.81131741600984,,,,,,,,,P004,2023-08-03_13h51.39.670,2AFC,2023.2.0,None,2023-08-03 13h52.19.032234 -0300,
0,0,0,0,38,0.00248715,0.013514119999999998,71.23043387501093,,,,,,,,,71.22532995900838,0.00012395800149533898,71.731591208998,71.731591208998,72.0308176670078,72.01328554200882,72.16394975000003,72.3113766250026,72.47976112501055,1,-46.68735283300339,,,,,,,,,P004,2023-08-03_13h51.39.670,2AFC,2023.2.0,None,2023-08-03 13h52.19.032234 -0300,
0,0,0,0,39,0.00115443,0.013514119999999998,72.48561200000404,,,,,,,,,72.47988041699864,0.00014479098899755627,72.986209374998,72.986209374998,73.28115300000354,73.26943933400617,73.41759633400943,73.5656391250086,73.66984504200809,1,-46.74794041700079,,,,,,,,,P004,2023-08-03_13h51.39.670,2AFC,2023.2.0,None,2023-08-03 13h52.19.032234 -0300,
0,0,0,0,40,0.00115443,0.012359689999999998,73.68243379201158,,,,,,,,,73.66994795900246,0.00011937500676140189,74.1765569170093,74.1765569170093,74.47238395900058,74.4685960420029,74.60592154201004,74.75586925000243,74.97487266700773,1,-46.63245137500053,,,,,,,,,P004,2023-08-03_13h51.39.670,2AFC,2023.2.0,None,2023-08-03 13h52.19.032234 -0300,
0,0,0,0,41,0.00115443,0.012359689999999998,74.98693812500278,,,,,,,,,74.97497641701193,0.00012475000403355807,75.48104237500229,75.48104237500229,75.77629012500984,75.77290300000459,75.9234512920084,76.06020041700685,76.17547450000711,0,-46.75733891600976,,,,,,,,,P004,2023-08-03_13h51.39.670,2AFC,2023.2.0,None,2023-08-03 13h52.19.032234 -0300,
0,0,0,0,42,0.00115443,0.012359689999999998,76.18084433399781,,,,,,,,,76.17559737501142,0.0001610000035725534,76.68170400000236,76.68170400000236,76.97966983400693,76.96353354200255,77.11363329199958,77.26140425000631,77.4130629170104,1,-46.71074424899416,,,,,,,,,P004,2023-08-03_13h51.39.670,2AFC,2023.2.0,None,2023-08-03 13h52.19.032234 -0300,
0,0,0,0,43,0.00115443,0.012359689999999998,77.41873158400995,,,,,,,,,77.41318899999897,0.00017316699086222798,77.91918479200103,77.91918479200103,78.21769887499977,78.20095020900771,78.35107708400756,78.49887966700771,78.62004829201032,1,-46.7315270830004,,,,,,,,,P004,2023-08-03_13h51.39.670,2AFC,2023.2.0,None,2023-08-03 13h52.19.032234 -0300,
0,0,0,0,44,0.00115443,0.012359689999999998,78.63248204199772,,,,,,,,,78.62016641700757,0.00014183299208525568,79.1263659170072,79.1263659170072,79.42121516700718,79.4186693750089,79.56916762499895,79.70571129200107,79.85777908400632,1,-46.71155049899244,,,,,,,,,P004,2023-08-03_13h51.39.670,2AFC,2023.2.0,None,2023-08-03 13h52.19.032234 -0300,
0,0,0,0,45,0.00115443,0.012359689999999998,79.86994929199864,,,,,,,,,79.85789729200769,0.00014016700151842088,80.36392212500505,80.36392212500505,80.65850108400628,80.65611483401153,80.80660866700055,80.94316737500776,81.14213991700672,1,-46.668565000014496,,,,,,,,,P004,2023-08-03_13h51.39.670,2AFC,2023.2.0,None,2023-08-03 13h52.19.032234 -0300,
0,0,0,0,46,0.00115443,0.011205259999999998,81.14754633400298,,,,,,,,,81.14227583400498,0.00014416698832064867,81.64824712500558,81.64824712500558,81.94628616700356,81.93003175000194,82.08054312500462,82.22813499999756,82.44669345900184,1,-46.636889916990185,,,,,,,,,P004,2023-08-03_13h51.39.670,2AFC,2023.2.0,None,2023-08-03 13h52.19.032234 -0300,
0,0,0,0,47,0.00115443,0.011205259999999998,82.44940329200472,,,,,,,,,82.44682741700672,0.00016054099251050502,82.95361675000458,82.95361675000458,83.25053133400797,83.23438733399962,83.38488291700196,83.53242695900553,83.83768795900687,1,-46.54701016600302,,,,,,,,,P004,2023-08-03_13h51.39.670,2AFC,2023.2.0,None,2023-08-03 13h52.19.032234 -0300,
0,0,0,0,48,0.00115443,0.011205259999999998,83.84999529201014,,,,,,,,,83.83780962500896,0.00014708300295751542,84.34426770900609,84.34426770900609,84.63881708400731,84.6361477090104,84.78674875000434,84.92344925001089,85.10544637500425,0,-46.68932775000576,,,,,,,,,P004,2023-08-03_13h51.39.670,2AFC,2023.2.0,None,2023-08-03 13h52.19.032234 -0300,
0,0,0,0,49,0.00115443,0.011205259999999998,85.11117908400774,,,,,,,,,85.1055779169983,0.0001441670028725639,85.6116757090058,85.6116757090058,85.91034112501075,85.89347666699905,86.04429108400655,86.1913926670095,86.31305941700703,0,-46.730898875001,,,,,,,,,P004,2023-08-03_13h51.39.670,2AFC,2023.2.0,None,2023-08-03 13h52.19.032234 -0300,
0,0,0,0,50,0.00115443,0.012359689999999998,86.32518758400693,,,,,,,,,86.31316525000148,0.00012029199569951743,86.82632779200503,86.82632779200503,87.11458670900902,87.11116833399865,87.26166400000511,87.39836520901008,87.58048554199922,0,-46.68801995800459,,,,,,,,,P004,2023-08-03_13h51.39.670,2AFC,2023.2.0,None,2023-08-03 13h52.19.032234 -0300,
0,0,0,0,51,0.00115443,0.012359689999999998,87.58592420900823,,,,,,,,,87.5806065420038,0.00015666701074223965,88.08677829201042,88.08677829201042,88.38457049999852,88.36851491700509,88.5187827089976,88.66641279200849,88.96845500000927,1,-46.55101174899028,,,,,,,,,P004,2023-08-03_13h51.39.670,2AFC,2023.2.0,None,2023-08-03 13h52.19.032234 -0300,
0,0,0,0,52,0.00115443,0.012359689999999998,88.97107837500516,,,,,,,,,88.96857387499767,0.0001424999936716631,89.47437825000088,89.47437825000088,89.77375591700547,89.75651854200987,89.90731470900937,90.05441383400466,90.34300937500666,0,-46.565311124009895,,,,,,,,,P004,2023-08-03_13h51.39.670,2AFC,2023.2.0,None,2023-08-03 13h52.19.032234 -0300,
0,0,0,0,53,0.00115443,0.012359689999999998,90.3552572500048,,,,,,,,,90.34313258400653,0.00014962498971726745,90.84935262500949,90.84935262500949,91.14403520899941,91.14139879200957,91.29193058400415,91.42897141700087,91.67762958400999,1,-46.62515958301083,,,,,,,,,P004,2023-08-03_13h51.39.670,2AFC,2023.2.0,None,2023-08-03 13h52.19.032234 -0300,
0,0,0,0,54,0.00115443,0.012359689999999998,91.68347679200815,,,,,,,,,91.67776170901197,0.00014883399126119912,92.18379904200265,92.18379904200265,92.48179587500636,92.46548700000858,92.61592195900448,92.76360170901171,92.95190250000451,1,-46.66521533300693,,,,,,,,,P004,2023-08-03_13h51.39.670,2AFC,2023.2.0,None,2023-08-03 13h52.19.032234 -0300,
0,0,0,0,55,0.00115443,0.012359689999999998,92.96404825001082,,,,,,,,,92.9520060000068,0.00012391700875014067,93.45815391700307,93.45815391700307,93.7534391250083,93.75015262499801,93.90068629200687,94.0379953750089,94.2560889590095,1,-46.64528199900815,,,,,,,,,P004,2023-08-03_13h51.39.670,2AFC,2023.2.0,None,2023-08-03 13h52.19.032234 -0300,
0,0,0,0,56,0.00115443,0.012359689999999998,94.26846500000102,,,,,,,,,94.2562096670008,0.00014454199117608368,94.76236012500885,94.76236012500885,95.05723325000145,95.05458579200786,95.2051572920027,95.34247412500554,95.67497150000418,1,-46.53009074900183,,,,,,,,,P004,2023-08-03_13h51.39.670,2AFC,2023.2.0,None,2023-08-03 13h52.19.032234 -0300,
0,0,0,0,57,0.00115443,0.011205259999999998,95.67753250000533,,,,,,,,,95.67509566700028,0.00014350000128615648,96.1813234170113,96.1813234170113,96.47854945900326,96.46263883401116,96.61279808401014,96.76039337500697,97.07904475000396,1,-46.545975208005984,,,,,,,,,P004,2023-08-03_13h51.39.670,2AFC,2023.2.0,None,2023-08-03 13h52.19.032234 -0300,
0,0,0,0,58,0.00115443,0.011205259999999998,97.08478466700763,,,,,,,,,97.07919054200465,0.00016141700325533748,97.58520549999957,97.58520549999957,97.88325608400919,97.86696316700545,98.01753262500279,98.16511583401007,98.42008416700992,1,-46.59844066599908,,,,,,,,,P004,2023-08-03_13h51.39.670,2AFC,2023.2.0,None,2023-08-03 13h52.19.032234 -0300,
0,0,0,0,59,0.00115443,0.011205259999999998,98.43249729200033,,,,,,,,,98.4202068750019,0.0001535420014988631,98.92664262501057,98.92664262501057,99.22100062500976,99.21863000000303,99.36913812501007,99.5057275420113,99.7921185419982,1,-46.57763216699823,,,,,,,,,P004,2023-08-03_13h51.39.670,2AFC,2023.2.0,None,2023-08-03 13h52.19.032234 -0300,
0,0,0,0,60,0.00115443,0.011205259999999998,99.8037920420029,,,,,,,,,99.79224033400533,0.00014645799819845706,100.29850400000578,100.29850400000578,100.59239925000293,100.58986983400246,100.74040375000914,100.87704900000244,101.05896883401147,1,-46.68888737499947,,,,,,,,,P004,2023-08-03_13h51.39.670,2AFC,2023.2.0,None,2023-08-03 13h52.19.032234 -0300,
0,0,0,0,61,0.00115443,0.010050829999999998,101.06422612500319,,,,,,,,,101.05906945900642,0.00012054100807290524,101.5650609590084,101.5650609590084,101.86335050000343,101.84724241700314,101.99749458400765,102.14519550000841,102.69805937500496,1,-46.303276624006685,,,,,,,,,P004,2023-08-03_13h51.39.670,2AFC,2023.2.0,None,2023-08-03 13h52.19.032234 -0300,
0,0,0,0,62,0.00115443,0.010050829999999998,102.70378620900738,,,,,,,,,102.69817754199903,0.0001412919955328107,103.20409516700602,103.20409516700602,103.50204875000054,103.48601220900309,103.63691016699886,103.78409408401058,104.05272720901121,1,-46.592455375008285,,,,,,,,,P004,2023-08-03_13h51.39.670,2AFC,2023.2.0,None,2023-08-03 13h52.19.032234 -0300,
0,0,0,0,63,0.00115443,0.010050829999999998,104.05812733400671,,,,,,,,,104.05286983400583,0.00015829199401196092,104.55893587500032,104.55893587500032,104.85691366699757,104.84115383400058,104.99406058400928,105.13866616701125,105.3570270420023,1,-46.64716441600467,,,,,,,,,P004,2023-08-03_13h51.39.670,2AFC,2023.2.0,None,2023-08-03 13h52.19.032234 -0300,
0,0,0,0,64,0.00115443,0.010050829999999998,105.36295945900201,,,,,,,,,105.3571494170028,0.00014725000073667616,105.86334345900104,105.86334345900104,106.161234625004,106.14479066700733,106.2954464170034,106.44309916700877,106.56437929200183,0,-46.73207708299742,,,,,,,,,P004,2023-08-03_13h51.39.670,2AFC,2023.2.0,None,2023-08-03 13h52.19.032234 -0300,
0,0,0,0,65,0.00115443,0.010050829999999998,106.57666375000554,,,,,,,,,106.56450050001149,0.00014554199879057705,107.07064016700315,107.07064016700315,107.36591070900613,107.3626731250115,107.5133709590009,107.6499569590087,107.80212791700615,1,-46.71178429099382,,,,,,,,,P004,2023-08-03_13h51.39.670,2AFC,2023.2.0,None,2023-08-03 13h52.19.032234 -0300,
0,0,0,0,66,0.00115443,0.010050829999999998,107.8141418340092,,,,,,,,,107.80225316699944,0.00014704199566040188,108.3154070419987,108.3154070419987,108.60287145900656,108.60031629200967,108.75064579200989,108.88784254201164,109.27018166700145,0,-46.48871633299859,,,,,,,,,P004,2023-08-03_13h51.39.670,2AFC,2023.2.0,None,2023-08-03 13h52.19.032234 -0300,
0,0,0,0,67,0.00115443,0.010050829999999998,109.2759776669991,,,,,,,,,109.2703002920025,0.0001447500108042732,109.7871422090102,109.7871422090102,110.07542300000205,110.05812225000409,110.20904920900648,110.35616895899875,110.57461304200115,1,-46.640275208003004,,,,,,,,,P004,2023-08-03_13h51.39.670,2AFC,2023.2.0,None,2023-08-03 13h52.19.032234 -0300,
0,0,0,0,68,0.00115443,0.010050829999999998,110.58043129200814,,,,,,,,,110.57473500000197,0.0001495829928899184,111.08090237500437,111.08090237500437,111.37877379200654,111.36257137500797,111.51269004200003,111.66066300000239,111.83279041700007,1,-46.680356958007906,,,,,,,,,P004,2023-08-03_13h51.39.670,2AFC,2023.2.0,None,2023-08-03 13h52.19.032234 -0300,
0,0,0,0,69,0.00115443,0.010050829999999998,111.84462000000349,,,,,,,,,111.8329097090027,0.00013870900147594512,112.33887820900418,112.33887820900418,112.63282512500882,112.63041250000242,112.78109699999914,112.91769108400331,113.18350708400249,1,-46.60171866600285,,,,,,,,,P004,2023-08-03_13h51.39.670,2AFC,2023.2.0,None,2023-08-03 13h52.19.032234 -0300,
0,0,0,0,70,0.00115443,0.010050829999999998,113.18612054199912,,,,,,,,,113.18362529200385,0.00014241700409911573,113.6898382090003,113.6898382090003,113.98798054200597,113.9712490420061,114.12177387499833,114.26943129200663,114.62169187499967,1,-46.50287899999239,,,,,,,,,P004,2023-08-03_13h51.39.670,2AFC,2023.2.0,None,2023-08-03 13h52.19.032234 -0300,
0,0,0,0,71,0.00115443,0.008896399999999999,114.62764125000103,,,,,,,,,114.62181129200326,0.0001417500025127083,115.12785416700353,115.12785416700353,115.4262037090084,115.40976700000465,115.55985433400201,115.70760062499903,115.87853733400698,1,-46.68182945800072,,,,,,,,,P004,2023-08-03_13h51.39.670,2AFC,2023.2.0,None,2023-08-03 13h52.19.032234 -0300,
0,0,0,0,72,0.00115443,0.008896399999999999,115.89168145900476,,,,,,,,,115.87864266699762,0.0001303750032093376,116.38466725000762,116.38466725000762,116.67990929201187,116.67741270900297,116.8142088750028,116.96467979199952,117.11614745900442,1,-46.69799137399241,,,,,,,,,P004,2023-08-03_13h51.39.670,2AFC,2023.2.0,None,2023-08-03 13h52.19.032234 -0300,
0,0,0,0,73,0.00115443,0.008896399999999999,117.12879745900864,,,,,,,,,117.11625266700867,0.0001235000090673566,117.62233075000404,117.62233075000404,117.9173387089977,117.91491400000814,118.05171041699941,118.20226720900973,118.35431004200655,1,-46.6989055830054,,,,,,,,,P004,2023-08-03_13h51.39.670,2AFC,2023.2.0,None,2023-08-03 13h52.19.032234 -0300,
0,0,0,0,74,0.00115443,0.008896399999999999,118.36643137500505,,,,,,,,,118.35440983400622,0.00012066699855495244,118.86029141700419,118.86029141700419,119.1549490000034,119.15242308400047,119.30296162499872,119.43950833400595,119.63827537500765,1,-46.66546308300167,,,,,,,,,P004,2023-08-03_13h51.39.670,2AFC,2023.2.0,None,2023-08-03 13h52.19.032234 -0300,
0,0,0,0,75,0.00115443,0.007741969999999999,119.64100641700497,,,,,,,,,119.63842095900327,0.0001460839994251728,120.14460420901014,120.14460420901014,120.44258554199769,120.42629495900474,120.57673966699804,120.72442412500095,120.99305491700943,1,-46.59124662500108,,,,,,,,,P004,2023-08-03_13h51.39.670,2AFC,2023.2.0,None,2023-08-03 13h52.19.032234 -0300,
0,0,0,0,76,0.00115443,0.007741969999999999,120.99879083401174,,,,,,,,,120.99319529200147,0.00014458299847319722,121.49937570899783,121.49937570899783,121.79713516699849,121.78081083401048,121.93153179201181,122.07910370900936,122.96954200000619,0,-45.96278074999282,,,,,,,,,P004,2023-08-03_13h51.39.670,2AFC,2023.2.0,None,2023-08-03 13h52.19.032234 -0300,
0,0,0,0,77,0.00115443,0.007741969999999999,122.98195179201139,,,,,,,,,122.96964212501189,0.00012229099229443818,123.47570195900335,123.47570195900335,123.77143166700262,123.76817262500117,123.91860387500492,124.05530312500196,124.15772762500274,1,-46.7607423330046,,,,,,,,,P004,2023-08-03_13h51.39.670,2AFC,2023.2.0,None,2023-08-03 13h52.19.032234 -0300,
0,0,0,0,78,0.00115443,0.007741969999999999,124.16920124999888,,,,,,,,,124.15784787500161,0.00014516699593514204,124.6639252090099,124.6639252090099,124.95809366700996,124.95535216700227,125.10591808400932,125.24349683400942,125.37855354200292,1,-46.72732091600483,,,,,,,,,P004,2023-08-03_13h51.39.670,2AFC,2023.2.0,None,2023-08-03 13h52.19.032234 -0300,
0,0,0,0,79,0.00115443,0.007741969999999999,125.39017937501194,,,,,,,,,125.37865441699978,0.0001240840065293014,125.88486379200185,125.88486379200185,126.17856483400101,126.17613029200584,126.32663033400604,126.46321895900473,126.69981800000824,1,-46.62669783299498,,,,,,,,,P004,2023-08-03_13h51.39.670,2AFC,2023.2.0,None,2023-08-03 13h52.19.032234 -0300,
0,0,0,0,80,0.00115443,0.007741969999999999,126.7113762920053,,,,,,,,,126.69994041700556,0.00015233400336001068,127.20606483399752,127.20606483399752,127.49972666701069,127.49716779201117,127.6478521250101,127.78445250001096,127.84923541700118,0,-46.79940591599734,,,,,,,,,P004,2023-08-03_13h51.39.670,2AFC,2023.2.0,None,2023-08-03 13h52.19.032234 -0300,
0,0,0,0,81,0.00115443,0.007741969999999999,127.85488358400471,,,,,,,,,127.84936741700221,0.00015770900063216686,128.35528162500123,128.35528162500123,128.65377287501178,128.63756654200552,128.78783795901109,128.93544416700024,129.45482204201107,0,-46.341682498998125,,,,,,,,,P004,2023-08-03_13h51.39.670,2AFC,2023.2.0,None,2023-08-03 13h52.19.032234 -0300,
0,0,0,0,82,0.00115443,0.008896399999999999,129.46048725000583,,,,,,,,,129.45496862501022,0.00014895798813086003,129.96098295900447,129.96098295900447,130.25907975000155,130.24299320900172,130.39365958400595,130.54092020900862,130.72933962500247,1,-46.66430204099743,,,,,,,,,P004,2023-08-03_13h51.39.670,2AFC,2023.2.0,None,2023-08-03 13h52.19.032234 -0300,
0,0,0,0,83,0.00115443,0.008896399999999999,130.74161520900088,,,,,,,,,130.72945995900955,0.00014691700926050544,131.23553737500333,131.23553737500333,131.53008537500864,131.52758866699878,131.67807754200476,131.8146576670115,132.08048866700847,1,-46.59866954101017,,,,,,,,,P004,2023-08-03_13h51.39.670,2AFC,2023.2.0,None,2023-08-03 13h52.19.032234 -0300,
0,0,0,0,84,0.00115443,0.008896399999999999,132.08322691700596,,,,,,,,,132.08060783401015,0.0001450830022804439,132.5868530000007,132.5868530000007,132.8846044170059,132.86887537500297,133.0187085840007,133.16639933400438,133.3681731250108,1,-46.657957666000584,,,,,,,,,P004,2023-08-03_13h51.39.670,2AFC,2023.2.0,None,2023-08-03 13h52.19.032234 -0300,
0,0,0,0,85,0.00115443,0.008896399999999999,133.37402187500265,,,,,,,,,133.36829312500777,0.00014870800077915192,133.87439354200615,133.87439354200615,134.17202229199756,134.1560562090017,134.30721275000542,134.45391870899766,134.72263016700163,1,-46.59701425000094,,,,,,,,,P004,2023-08-03_13h51.39.670,2AFC,2023.2.0,None,2023-08-03 13h52.19.032234 -0300,
0,0,0,0,86,0.00115443,0.007741969999999999,134.72854783400544,,,,,,,,,134.72279183400678,0.0001562919933348894,135.2289230000024,135.2289230000024,135.5269798750087,135.51045258399972,135.66102008400776,135.80865491701115,136.13057791700703,0,-46.530621416008216,,,,,,,,,P004,2023-08-03_13h51.39.670,2AFC,2023.2.0,None,2023-08-03 13h52.19.032234 -0300,
0,0,0,0,87,0.00115443,0.007741969999999999,136.14289175000158,,,,,,,,,136.13070079201134,0.000141707991133444,136.63683108400437,136.63683108400437,136.9323597090115,136.9290934169985,137.07961195900862,137.21634225000162,137.39818570901116,1,-46.692275207999046,,,,,,,,,P004,2023-08-03_13h51.39.670,2AFC,2023.2.0,None,2023-08-03 13h52.19.032234 -0300,
0,0,0,0,88,0.00115443,0.007741969999999999,137.40402975000325,,,,,,,,,137.39832366700284,0.00017166699399240315,137.90448266699968,137.90448266699968,138.20345904200803,138.18679616700683,138.33699183400313,138.48445520900714,138.70276645899867,1,-46.64404304100026,,,,,,,,,P004,2023-08-03_13h51.39.670,2AFC,2023.2.0,None,2023-08-03 13h52.19.032234 -0300,
0,0,0,0,89,0.00115443,0.007741969999999999,138.70866179199948,,,,,,,,,138.70289020900964,0.00016020900511648506,139.20888637501048,139.20888637501048,139.5071565840044,139.49059800000396,139.6406243750098,139.78868895900086,139.94025933400553,1,-46.7085062499973,,,,,,,,,P004,2023-08-03_13h51.39.670,2AFC,2023.2.0,None,2023-08-03 13h52.19.032234 -0300,
0,0,0,0,90,0.00115443,0.007741969999999999,139.94592308400024,,,,,,,,,139.94037870899774,0.00014545800513587892,140.44641579200106,140.44641579200106,140.74456270900555,140.7282893340016,140.87851833400782,141.0261817920109,141.21443370899942,0,-46.66420866599947,,,,,,,,,P004,2023-08-03_13h51.39.670,2AFC,2023.2.0,None,2023-08-03 13h52.19.032234 -0300,
0,0,0,0,91,0.00115443,0.007741969999999999,141.22687608400884,,,,,,,,,141.21455270900333,0.0001436669990653172,141.72060808401147,141.72060808401147,142.01522308400308,142.01285791699775,142.16335379199882,142.2999531670066,142.4319140000007,1,-46.73410695799976,,,,,,,,,P004,2023-08-03_13h51.39.670,2AFC,2023.2.0,None,2023-08-03 13h52.19.032234 -0300,
0,0,0,0,92,0.00115443,0.007741969999999999,142.43710704200203,,,,,,,,,142.4320211669983,0.00012008300109300762,142.93801125000755,142.93801125000755,143.23596658400493,143.21976695900958,143.37046625000949,143.51793700001144,143.80337854199752,0,-46.56771483299963,,,,,,,,,P004,2023-08-03_13h51.39.670,2AFC,2023.2.0,None,2023-08-03 13h52.19.032234 -0300,
0,0,0,0,93,0.00115443,0.007741969999999999,143.80600629199762,,,,,,,,,143.80350204200658,0.0001463329972466454,144.3200686670025,144.3200686670025,144.60843125000247,144.5911518339999,144.7424197920045,144.88917229200888,145.15787662500225,0,-46.591754708002554,,,,,,,,,P004,2023-08-03_13h51.39.670,2AFC,2023.2.0,None,2023-08-03 13h52.19.032234 -0300,
0,0,0,0,94,0.00115443,0.008896399999999999,145.1636944589991,,,,,,,,,145.15800337500696,0.00014133400691207498,145.66384725000535,145.66384725000535,145.96174600000086,145.9456973750057,146.0962097090087,146.24373770901002,146.412231084003,0,-46.68401666599675,,,,,,,,,P004,2023-08-03_13h51.39.670,2AFC,2023.2.0,None,2023-08-03 13h52.19.032234 -0300,
0,0,0,0,95,0.00115443,0.008896399999999999,146.41480500000762,,,,,,,,,146.41235408400826,0.0001475830067647621,146.91857575000904,146.91857575000904,147.21602050001093,147.20018187499954,147.35043970900006,147.4979388750071,147.83379550000245,1,-46.51996545800648,,,,,,,,,P004,2023-08-03_13h51.39.670,2AFC,2023.2.0,None,2023-08-03 13h52.19.032234 -0300,
0,0,0,0,96,0.00115443,0.008896399999999999,147.83638308400987,,,,,,,,,147.8339171250118,0.0001765000051818788,148.34004837500106,148.34004837500106,148.63785579201067,148.6213560840115,148.7727424170007,148.91942304201075,149.15765008400194,1,-46.61532820800494,,,,,,,,,P004,2023-08-03_13h51.39.670,2AFC,2023.2.0,None,2023-08-03 13h52.19.032234 -0300,
0,0,0,0,97,0.00115443,0.008896399999999999,149.1701614170015,,,,,,,,,149.1577669170074,0.00014241600001696497,149.66384225001093,149.66384225001093,149.95861675000924,149.95636045900756,150.09299345900945,150.24344254200696,150.50892495900916,1,-46.5862504169927,,,,,,,,,P004,2023-08-03_13h51.39.670,2AFC,2023.2.0,None,2023-08-03 13h52.19.032234 -0300,
0,0,0,0,98,0.00115443,0.008896399999999999,150.51151945900347,,,,,,,,,150.50908095900377,0.00016695800877641886,151.01513975000125,151.01513975000125,151.31083933400805,151.29760387500573,151.44725800000015,151.59516075000283,151.796952625009,1,-46.65793141700851,,,,,,,,,P004,2023-08-03_13h51.39.670,2AFC,2023.2.0,None,2023-08-03 13h52.19.032234 -0300,
0,0,0,0,99,0.00115443,0.007741969999999999,151.80281258400646,,,,,,,,,151.79708279200713,0.00014441600069403648,152.30309562500042,152.30309562500042,152.6010132500087,152.58490841700404,152.73599091700453,152.88285341700248,153.07159687500098,1,-46.66429579099349,,,,,,,,,P004,2023-08-03_13h51.39.670,2AFC,2023.2.0,None,2023-08-03 13h52.19.032234 -0300,
0,0,0,0,100,0.00115443,0.007741969999999999,153.08343933400465,,,,,,,,,153.07172116699803,0.00014770800771657377,153.57771116700314,153.57771116700314,153.8719071670057,153.86940908399993,154.01994266700058,154.15662612501183,154.28874883400567,1,-46.73266650000005,,,,,,,,,P004,2023-08-03_13h51.39.670,2AFC,2023.2.0,None,2023-08-03 13h52.19.032234 -0300,
0,0,0,0,101,0.00115443,0.007741969999999999,154.2944065000047,,,,,,,,,154.28886587500165,0.00014204200124368072,154.8054549590015,154.8054549590015,155.09288491700136,155.0766937090084,155.22690600001079,155.37468225001066,155.642585959009,1,-46.59149679100665,,,,,,,,,P004,2023-08-03_13h51.39.670,2AFC,2023.2.0,None,2023-08-03 13h52.19.032234 -0300,
0,0,0,0,102,0.00115443,0.007741969999999999,155.64712475000124,,,,,,,,,155.6427298750059,0.00016187499568331987,156.14869645900035,156.14869645900035,156.44483683400904,156.43129879199842,156.5814101670112,156.72911266700248,156.88061274999927,1,-46.7077850420028,,,,,,,,,P004,2023-08-03_13h51.39.670,2AFC,2023.2.0,None,2023-08-03 13h52.19.032234 -0300,
0,0,0,0,103,0.00115443,0.006587539999999999,156.88605225000356,,,,,,,,,156.88074758400035,0.000145500001963228,157.38670304200787,157.38670304200787,157.6848989590071,157.66857258400705,157.81887899999856,157.96664533400326,158.9909279590065,0,-45.8285423329944,,,,,,,,,P004,2023-08-03_13h51.39.670,2AFC,2023.2.0,None,2023-08-03 13h52.19.032234 -0300,
0,0,0,0,104,0.00115443,0.006587539999999999,159.0034517919994,,,,,,,,,158.99105475000397,0.00014704199566040188,159.49722650001058,159.49722650001058,159.79199949999747,159.78941204200964,159.93991629200173,160.07659575001162,160.409274250007,0,-46.53210029100592,,,,,,,,,P004,2023-08-03_13h51.39.670,2AFC,2023.2.0,None,2023-08-03 13h52.19.032234 -0300,
0,0,0,0,105,0.00115443,0.007741969999999999,160.41524745900824,,,,,,,,,160.40939858400088,0.0001405829971190542,160.91537304200756,160.91537304200756,161.21328145900043,161.19733837500098,161.34761224999966,161.49516120900807,161.78043416699802,1,-46.5686016670079,,,,,,,,,P004,2023-08-03_13h51.39.670,2AFC,2023.2.0,None,2023-08-03 13h52.19.032234 -0300,
0,0,0,0,106,0.00115443,0.007741969999999999,161.78570020900224,,,,,,,,,161.7805429170112,0.00012341700494289398,162.28666041699762,162.28666041699762,162.58481020900945,162.5683340000105,162.7186845420074,162.86642474999826,163.10592379199807,1,-46.6126682489994,,,,,,,,,P004,2023-08-03_13h51.39.670,2AFC,2023.2.0,None,2023-08-03 13h52.19.032234 -0300,
0,0,0,0,107,0.00115443,0.007741969999999999,163.1172020840022,,,,,,,,,163.10605479200603,0.0001610000035725534,163.61213870900974,163.61213870900974,163.90676350001013,163.90330258400354,164.05383791700297,164.19043862500985,164.4225935840077,0,-46.64294333300495,,,,,,,,,P004,2023-08-03_13h51.39.670,2AFC,2023.2.0,None,2023-08-03 13h52.19.032234 -0300,
0,0,0,0,108,0.00115443,0.007741969999999999,164.428360083999,,,,,,,,,164.42272737500025,0.00015141699986997992,164.92852425000456,164.92852425000456,165.22678141700453,165.2106536670035,165.36096220900072,165.50866233400302,165.66007529200579,0,-46.71240470799967,,,,,,,,,P004,2023-08-03_13h51.39.670,2AFC,2023.2.0,None,2023-08-03 13h52.19.032234 -0300,
0,0,0,0,109,0.00115443,0.008896399999999999,165.66594208400056,,,,,,,,,165.66021241700219,0.0001608749880688265,166.16612454201095,166.16612454201095,166.46553037500416,166.44841700000688,166.5989625420043,166.74619104200974,167.0007344589976,0,-46.59829941600037,,,,,,,,,P004,2023-08-03_13h51.39.670,2AFC,2023.2.0,None,2023-08-03 13h52.19.032234 -0300,
0,0,0,0,110,0.00115443,0.008896399999999999,167.01366112500546,,,,,,,,,167.0008369999996,0.00012125000648666173,167.5068592500029,167.5068592500029,167.8020675840089,167.7996531670069,167.93609312499757,168.08701425000618,168.26890612499847,1,-46.67799820800428,,,,,,,,,P004,2023-08-03_13h51.39.670,2AFC,2023.2.0,None,2023-08-03 13h52.19.032234 -0300,
0,0,0,0,111,0.00115443,0.008896399999999999,168.27456379200157,,,,,,,,,168.26904262500466,0.00014312499843072146,168.78589587500028,168.78589587500028,169.0735990000103,169.05680366700108,169.20752862500376,169.35492545900343,169.65740858401114,0,-46.553624082996976,,,,,,,,,P004,2023-08-03_13h51.39.670,2AFC,2023.2.0,None,2023-08-03 13h52.19.032234 -0300,
0,0,0,0,112,0.00115443,0.008896399999999999,169.6631961670064,,,,,,,,,169.6575321249984,0.00014400000509340316,170.16337595900404,170.16337595900404,170.46220845900825,170.44477587500296,170.5954395000008,170.74292904201138,171.048027834011,1,-46.54762804201164,,,,,,,,,P004,2023-08-03_13h51.39.670,2AFC,2023.2.0,None,2023-08-03 13h52.19.032234 -0300,
0,0,0,0,113,0.00115443,0.008896399999999999,171.06069508400105,,,,,,,,,171.048150542003,0.00014854098844807595,171.55417166699772,171.55417166699772,171.84896725,171.84648804200697,171.98354354201,172.13385141700564,172.30240737499844,1,-46.6811756669922,,,,,,,,,P004,2023-08-03_13h51.39.670,2AFC,2023.2.0,None,2023-08-03 13h52.19.032234 -0300,
0,0,0,0,114,0.00115443,0.008896399999999999,172.31477020900638,,,,,,,,,172.30253120900306,0.00014600000577047467,172.81610258400906,172.81610258400906,173.10416066700418,173.10091074999946,173.2514113750076,173.38810583400482,173.67059341700224,0,-46.593056625002646,,,,,,,,,P004,2023-08-03_13h51.39.670,2AFC,2023.2.0,None,2023-08-03 13h52.19.032234 -0300,
0,0,0,0,115,0.00115443,0.008896399999999999,173.67643400000816,,,,,,,,,173.67071333400963,0.00014674999692942947,174.17825837500277,174.17825837500277,174.47452083400276,174.45844883400423,174.608890375006,174.7566031669994,175.0114085420064,1,-46.597432873997604,,,,,,,,,P004,2023-08-03_13h51.39.670,2AFC,2023.2.0,None,2023-08-03 13h52.19.032234 -0300,
0,0,0,0,116,0.00115443,0.008896399999999999,175.02392887500173,,,,,,,,,175.01150887500262,0.00012366700684651732,175.51730400000815,175.51730400000815,175.81263095900067,175.8100690840074,175.94683787500253,176.09727037500124,176.3462368340115,1,-46.61132483299298,,,,,,,,,P004,2023-08-03_13h51.39.670,2AFC,2023.2.0,None,2023-08-03 13h52.19.032234 -0300,
0,0,0,0,117,0.00115443,0.008896399999999999,176.3520597500028,,,,,,,,,176.34635566700308,0.0001427089882781729,176.8524225000001,176.8524225000001,177.1503613750101,177.13403858400125,177.2845222090109,177.4321788750094,177.62035308399936,1,-46.665333083001315,,,,,,,,,P004,2023-08-03_13h51.39.670,2AFC,2023.2.0,None,2023-08-03 13h52.19.032234 -0300,
0,0,0,0,118,0.00115443,0.008896399999999999,177.6326608750096,,,,,,,,,177.62047270900803,0.00014108300092630088,178.12658799999917,178.12658799999917,178.42167987499852,178.41883637499996,178.5693762919982,178.70670204200724,178.97199358401122,1,-46.600238665996585,,,,,,,,,P004,2023-08-03_13h51.39.670,2AFC,2023.2.0,None,2023-08-03 13h52.19.032234 -0300,
0,0,0,0,119,0.00115443,0.007741969999999999,178.97450675000437,,,,,,,,,178.97212508400844,0.0001430409902241081,179.47843979200115,179.47843979200115,179.77584825000667,179.75959562500066,179.90982520900434,180.05767929200374,180.2298412920063,0,-46.68162933300482,,,,,,,,,P004,2023-08-03_13h51.39.670,2AFC,2023.2.0,None,2023-08-03 13h52.19.032234 -0300,
0,0,0,0,120,0.00115443,0.007741969999999999,180.2416564590094,,,,,,,,,180.2299602090061,0.00014449999434873462,180.7363122090028,180.7363122090028,181.03140375000658,181.02767833400867,181.1781329170044,181.314726334007,181.49690991699754,1,-46.68917108300957,,,,,,,,,P004,2023-08-03_13h51.39.670,2AFC,2023.2.0,None,2023-08-03 13h52.19.032234 -0300,
0,0,0,0,121,0.00115443,0.007741969999999999,181.50266408400785,,,,,,,,,181.49704004199884,0.00016329200298059732,182.0030629170069,182.0030629170069,182.30211204200168,182.2847664590081,182.43579062500794,182.58290029200725,182.73446274999878,1,-46.70821574999718,,,,,,,,,P004,2023-08-03_13h51.39.670,2AFC,2023.2.0,None,2023-08-03 13h52.19.032234 -0300,
0,0,0,0,122,0.00115443,0.007741969999999999,182.74021537500084,,,,,,,,,182.73458279200713,0.00014612500672228634,183.24046962500142,183.24046962500142,183.5384719170106,183.5221834170079,183.67247833400324,183.82040491700172,183.9719231670024,0,-46.70863283300423,,,,,,,,,P004,2023-08-03_13h51.39.670,2AFC,2023.2.0,None,2023-08-03 13h52.19.032234 -0300,
0,0,0,0,123,0.00115443,0.007741969999999999,183.9779299590009,,,,,,,,,183.9720421670063,0.00014329201076179743,184.47807362501044,184.47807362501044,184.77359183400404,184.76065120899875,184.9100355420087,185.05791787500493,185.24662616700516,0,-46.663306874994305,,,,,,,,,P004,2023-08-03_13h51.39.670,2AFC,2023.2.0,None,2023-08-03 13h52.19.032234 -0300,
0,0,0,0,124,0.00115443,0.008896399999999999,185.25874679200933,,,,,,,,,185.24675679201027,0.00014525000005960464,185.75253100000555,185.75253100000555,186.0471118340065,186.04459975000645,186.19512512499932,186.3322457500035,186.55052400000568,0,-46.64432749900152,,,,,,,,,P004,2023-08-03_13h51.39.670,2AFC,2023.2.0,None,2023-08-03 13h52.19.032234 -0300,
0,0,0,0,125,0.00115443,0.008896399999999999,186.56292004200805,,,,,,,,,186.5506257090019,0.0001222080027218908,187.05664691700076,187.05664691700076,187.3508845840115,187.34861512501084,187.49939833401004,187.63618845900055,187.75116129200615,1,-46.75535279199539,,,,,,,,,P004,2023-08-03_13h51.39.670,2AFC,2023.2.0,None,2023-08-03 13h52.19.032234 -0300,
0,0,0,0,126,0.00115443,0.008896399999999999,187.75660395900195,,,,,,,,,187.7513240420085,0.00016712499200366437,188.2571083340008,188.2571083340008,188.55297233400051,188.5394550839992,188.6896946670022,188.83735650000744,189.0558036250004,0,-46.641043790994445,,,,,,,,,P004,2023-08-03_13h51.39.670,2AFC,2023.2.0,None,2023-08-03 13h52.19.032234 -0300,
0,0,0,0,127,0.00115443,0.008896399999999999,189.0617255840043,,,,,,,,,189.0559278340079,0.00014670900418423116,189.5617066249979,189.5617066249979,189.8597775840026,189.84357266699953,189.99392166700272,190.14166266701068,190.42707116701058,0,-46.57339279100415,,,,,,,,,P004,2023-08-03_13h51.39.670,2AFC,2023.2.0,None,2023-08-03 13h52.19.032234 -0300,
0,0,0,0,128,0.00115443,0.010050829999999998,190.43271733399888,,,,,,,,,190.42721325000457,0.00014408300921786577,190.93324587499956,190.93324587499956,191.23116295901127,191.21481337500154,191.36499716700928,191.51296495900897,191.84838104200026,0,-46.52734370800317,,,,,,,,,P004,2023-08-03_13h51.39.670,2AFC,2023.2.0,None,2023-08-03 13h52.19.032234 -0300,
0,0,0,0,129,0.00115443,0.010050829999999998,191.8542680840037,,,,,,,,,191.84851383400382,0.000155999994603917,192.3544837500085,192.3544837500085,192.6501052500098,192.63691679200565,192.7866372920107,192.9344426250027,193.45810458400229,0,-46.32839133300877,,,,,,,,,P004,2023-08-03_13h51.39.670,2AFC,2023.2.0,None,2023-08-03 13h52.19.032234 -0300,
0,0,0,0,130,0.00115443,0.011205259999999998,193.46966812500614,,,,,,,,,193.45822920900537,0.00014712499978486449,193.96427679200133,193.96427679200133,194.2586166250112,194.25559891700686,194.4061187920015,194.54283587500686,194.81207170900598,0,-46.59412270800385,,,,,,,,,P004,2023-08-03_13h51.39.670,2AFC,2023.2.0,None,2023-08-03 13h52.19.032234 -0300,
0,0,0,0,131,0.00115443,0.011205259999999998,194.82396662500105,,,,,,,,,194.81217299999844,0.00012254099419806153,195.31812416700996,195.31812416700996,195.61260704199958,195.61008479200245,195.76064395900175,195.89734300000418,196.02915112501069,1,-46.733790165992104,,,,,,,,,P004,2023-08-03_13h51.39.670,2AFC,2023.2.0,None,2023-08-03 13h52.19.032234 -0300,
0,0,0,0,132,0.00115443,0.011205259999999998,196.03490275000513,,,,,,,,,196.02927250000357,0.00014641700545325875,196.5352224590024,196.5352224590024,196.83336316701025,196.81707379200088,196.96741937501065,197.11519650000264,197.220069959003,1,-46.74768904100347,,,,,,,,,P004,2023-08-03_13h51.39.670,2AFC,2023.2.0,None,2023-08-03 13h52.19.032234 -0300,
0,0,0,0,133,0.00115443,0.011205259999999998,197.23218608400202,,,,,,,,,197.22018770901195,0.00014316700980998576,197.7261515840073,197.7261515840073,198.02055604199995,198.01815954199992,198.16866283401032,198.30541329200787,198.6881435420073,1,-46.49089149899373,,,,,,,,,P004,2023-08-03_13h51.39.670,2AFC,2023.2.0,None,2023-08-03 13h52.19.032234 -0300,
0,0,0,0,134,0.00115443,0.011205259999999998,198.69407508400036,,,,,,,,,198.68827574999887,0.00015633300063200295,199.194270625012,199.194270625012,199.49304100000882,199.47659579200263,199.6271119590092,199.77417333400808,199.9257387920079,1,-46.71160916599911,,,,,,,,,P004,2023-08-03_13h51.39.670,2AFC,2023.2.0,None,2023-08-03 13h52.19.032234 -0300,
0,0,0,0,135,0.00115443,0.010050829999999998,199.93166149999888,,,,,,,,,199.92587274999823,0.00014637499407399446,200.43188816700422,200.43188816700422,200.7297482920112,200.71354945900384,200.86469250000664,201.01163808400452,201.2665923750028,1,-46.59816654199676,,,,,,,,,P004,2023-08-03_13h51.39.670,2AFC,2023.2.0,None,2023-08-03 13h52.19.032234 -0300,
0,0,0,0,136,0.00115443,0.010050829999999998,201.2790080840059,,,,,,,,,201.2667147500033,0.00014212500536814332,201.78040275000967,201.78040275000967,202.0678457920003,202.06513712499873,202.2019142920035,202.3524851250113,202.55111204199784,1,-46.65334000000439,,,,,,,,,P004,2023-08-03_13h51.39.670,2AFC,2023.2.0,None,2023-08-03 13h52.19.032234 -0300,
0,0,0,0,137,0.00115443,0.010050829999999998,202.55700058399816,,,,,,,,,202.55123870899843,0.0001445420057279989,203.06811829200888,203.06811829200888,203.3554019590083,203.33904570899904,203.48953404200438,203.63718491701002,203.87594862500555,0,-46.61346245800087,,,,,,,,,P004,2023-08-03_13h51.39.670,2AFC,2023.2.0,None,2023-08-03 13h52.19.032234 -0300,
0,0,0,0,138,0.00115443,0.010050829999999998,203.8879370000068,,,,,,,,,203.87606845900882,0.00014608299534302205,204.38260441699822,204.38260441699822,204.6765935000003,204.67391654200037,204.82447979200515,204.961455459008,205.15992141699826,1,-46.664448957992136,,,,,,,,,P004,2023-08-03_13h51.39.670,2AFC,2023.2.0,None,2023-08-03 13h52.19.032234 -0300,
0,0,0,0,139,0.00115443,0.010050829999999998,205.1626168340008,,,,,,,,,205.16004116700788,0.0001434580044588074,205.66617908400076,205.66617908400076,205.96500808400742,205.9478577090049,206.09900025000388,206.24594166700263,206.46757270900707,1,-46.63209824899968,,,,,,,,,P004,2023-08-03_13h51.39.670,2AFC,2023.2.0,None,2023-08-03 13h52.19.032234 -0300,
0,0,0,0,140,0.00115443,0.010050829999999998,206.47991966700647,,,,,,,,,206.46769458400377,0.00014154199743643403,206.97349866700824,206.97349866700824,207.26911216700682,207.26610704199993,207.41659437499766,207.55315483400773,207.81892337500176,1,-46.602020833001006,,,,,,,,,P004,2023-08-03_13h51.39.670,2AFC,2023.2.0,None,2023-08-03 13h52.19.032234 -0300,
0,0,0,0,141,0.00115443,0.010050829999999998,207.82446300001175,,,,,,,,,207.81905954200192,0.00014729099348187447,208.32511075001094,208.32511075001094,208.62302633401123,208.60730241700367,208.75750425001024,208.90491679200204,209.14328316700994,0,-46.61465208300797,,,,,,,,,P004,2023-08-03_13h51.39.670,2AFC,2023.2.0,None,2023-08-03 13h52.19.032234 -0300,
0,0,0,0,142,0.00115443,0.010050829999999998,209.1557110420108,,,,,,,,,209.14340349999839,0.0001450830022804439,209.64949250000063,209.64949250000063,209.94509254200966,209.94167850000667,210.0924004999979,210.22955187500338,210.36101704199973,0,-46.73467629100196,,,,,,,,,P004,2023-08-03_13h51.39.670,2AFC,2023.2.0,None,2023-08-03 13h52.19.032234 -0300,
0,0,0,0,143,0.00115443,0.011205259999999998,210.3637287090096,,,,,,,,,210.36114537500544,0.00014766700041946024,210.86712075000105,210.86712075000105,211.16494941699784,211.1487491250009,211.29993616700813,211.44689683400793,211.58175891700375,0,-46.72913737400086,,,,,,,,,P004,2023-08-03_13h51.39.670,2AFC,2023.2.0,None,2023-08-03 13h52.19.032234 -0300,
0,0,0,0,144,0.00115443,0.011205259999999998,211.58765970901004,,,,,,,,,211.58188045900897,0.00015441699360962957,212.08797975000925,212.08797975000925,212.3858622090047,212.3695857499988,212.51970874999824,212.66762329199992,212.8554048340011,0,-46.665377124998486,,,,,,,,,P004,2023-08-03_13h51.39.670,2AFC,2023.2.0,None,2023-08-03 13h52.19.032234 -0300,
0,0,0,0,145,0.00115443,0.012359689999999998,212.8679955000116,,,,,,,,,212.85551062499871,0.00012241600779816508,213.36135966700385,213.36135966700385,213.65666937500646,213.65416008399916,213.79077879199758,213.9414809590089,214.00646608399984,0,-46.7890606669971,,,,,,,,,P004,2023-08-03_13h51.39.670,2AFC,2023.2.0,None,2023-08-03 13h52.19.032234 -0300,
0,0,0,0,146,0.00115443,0.012359689999999998,214.01220379200822,,,,,,,,,214.00658720900537,0.0001433750003343448,214.5122197090095,214.5122197090095,214.80810991700855,214.79476037500717,214.94478250000975,215.09248425000987,215.2642725839978,0,-46.680351125003654,,,,,,,,,P004,2023-08-03_13h51.39.670,2AFC,2023.2.0,None,2023-08-03 13h52.19.032234 -0300,
0,0,0,0,147,0.00115443,0.013514119999999998,215.27622574999987,,,,,,,,,215.26439670901163,0.00014104200818110257,215.77760133400443,215.77760133400443,216.06501104201016,216.06235466701037,216.2129130000103,216.3495243750076,216.5686878340057,1,-46.64417549900827,,,,,,,,,P004,2023-08-03_13h51.39.670,2AFC,2023.2.0,None,2023-08-03 13h52.19.032234 -0300,
0,0,0,0,148,0.00115443,0.013514119999999998,216.58084804200917,,,,,,,,,216.56880883401027,0.000148209001054056,217.0749895839981,217.0749895839981,217.3691555000114,217.36667695900542,217.51720275000844,217.65396462500212,217.80563758400967,1,-46.71227516599174,,,,,,,,,P004,2023-08-03_13h51.39.670,2AFC,2023.2.0,None,2023-08-03 13h52.19.032234 -0300,
0,0,0,0,149,0.00115443,0.013514119999999998,217.81816420900577,,,,,,,,,217.80575970900827,0.000145500001963228,218.31933150000987,218.31933150000987,218.6065703750064,218.60417274999782,218.74067166700843,218.8915478340059,219.073533917006,1,-46.67692195800191,,,,,,,,,P004,2023-08-03_13h51.39.670,2AFC,2023.2.0,None,2023-08-03 13h52.19.032234 -0300,
0,0,0,0,,,,,,,,,,,,,,,,,,,,,,,,219.073683834009,219.0804500420054,249.06049425000674,249.0764014590095,258.8438921670022,num_enter,-37.216465999998036,None,P004,2023-08-03_13h51.39.670,2AFC,2023.2.0,None,2023-08-03 13h52.19.032234 -0300,
