Blocks.thisRepN,Blocks.thisTrialN,Blocks.thisN,Blocks.thisIndex,staircase.thisTrialN,staircase.stepSize,staircase.intensity,thisRow.t,notes,instr.started,instructions.started,ready.started,instr.stopped,ready.keys,ready.rt,ready.duration,contrast.started,ISI_2.started,target_2.started,fixation_2.started,target_2.stopped,noise_2.started,resp_2.started,noise_2.stopped,contrast.stopped,staircase.response,resp_2.rt,resting.started,Rest.started,ready_2.started,Rest.stopped,resting.stopped,ready_2.keys,ready_2.rt,ready_2.duration,participant,date,expName,psychopyVersion,frameRate,expStart,
,,,,,,,,,0.0039051659987308085,0.00932674999057781,0.00932674999057781,12.722612665995257,l,-3.875456125009805,None,,,,,,,,,,,,,,,,,,,,P005,2023-08-03_15h19.26.107,2AFC,2023.2.0,None,2023-08-03 15h19.35.871709 -0300,
0,0,0,0,0,0.53584112,0.5,12.735580290987855,,,,,,,,,12.724113290998503,0.0016918339970288798,13.23297966599057,13.23297966599057,13.520463249995373,13.520463249995373,13.670559499994852,13.818885916,14.191058124997653,1,-16.032827125003678,,,,,,,,,P005,2023-08-03_15h19.26.107,2AFC,2023.2.0,None,2023-08-03 15h19.35.871709 -0300,
0,0,0,0,1,0.53584112,0.001,14.203446790997987,,,,,,,,,14.191206915988005,0.00014749998808838427,14.697421207994921,14.697421207994921,14.992866040993249,14.989640915999189,15.140223415990476,15.277775165988714,15.67626733299403,1,-16.01890608301619,,,,,,,,,P005,2023-08-03_15h19.26.107,2AFC,2023.2.0,None,2023-08-03 15h19.35.871709 -0300,
0,0,0,0,2,0.24871541,0.001,15.69107920800161,,,,,,,,,15.676397165996605,0.00013987500278744847,16.182677832999616,16.182677832999616,16.480356749991188,16.464067957989755,16.61464287499257,16.762230790991453,17.030743290990358,0,-16.143347875011386,,,,,,,,,P005,2023-08-03_15h19.26.107,2AFC,2023.2.0,None,2023-08-03 15h19.35.871709 -0300,
0,0,0,0,3,0.24871541,0.24971541,17.03665091599396,,,,,,,,,17.030876457996783,0.00013662499259226024,17.5371577909973,17.5371577909973,17.835662124998635,17.819152957992628,17.969353874999797,18.116956290992675,18.28529783299018,1,-16.23703254200518,,,,,,,,,P005,2023-08-03_15h19.26.107,2AFC,2023.2.0,None,2023-08-03 15h19.35.871709 -0300,
0,0,0,0,4,0.24871541,0.24971541,18.287746499991044,,,,,,,,,18.285413665988017,0.00013579199730884284,18.801922082988312,18.801922082988312,19.090127915987978,19.07291287499538,19.224013915998512,19.37096741599089,19.622960957989562,1,-16.165598917010357,,,,,,,,,P005,2023-08-03_15h19.26.107,2AFC,2023.2.0,None,2023-08-03 15h19.35.871709 -0300,
0,0,0,0,5,0.11544347,0.24971541,19.628365915996255,,,,,,,,,19.623077290991205,0.00013766599295195192,20.12901045799663,20.12901045799663,20.428043540989165,20.410646915988764,20.56101774999115,20.708900124998763,20.944053790997714,1,-16.175737167010084,,,,,,,,,P005,2023-08-03_15h19.26.107,2AFC,2023.2.0,None,2023-08-03 15h19.35.871709 -0300,
0,0,0,0,6,0.11544347,0.13427193999999998,20.949771624989808,,,,,,,,,20.944180874997983,0.0001417500025127083,21.450168290990405,21.450168290990405,21.74900429099216,21.731812790996628,21.882060290998197,22.029957540988107,22.24854079099896,1,-16.18974754199735,,,,,,,,,P005,2023-08-03_15h19.26.107,2AFC,2023.2.0,None,2023-08-03 15h19.35.871709 -0300,
0,0,0,0,7,0.11544347,0.13427193999999998,22.25113170799159,,,,,,,,,22.248662665995653,0.00014479200763162225,22.754783625001437,22.754783625001437,23.052488874993287,23.035982040993986,23.1865289999987,23.334406499998295,23.552673874990433,1,-16.189853000003495,,,,,,,,,P005,2023-08-03_15h19.26.107,2AFC,2023.2.0,None,2023-08-03 15h19.35.871709 -0300,
0,0,0,0,8,0.11544347,0.13427193999999998,23.55552166599955,,,,,,,,,23.55277508299332,0.00011854199692606926,24.059068040995044,24.059068040995044,24.357674499988207,24.340600083000027,24.491244082993944,24.638742915994953,24.790307707997272,1,-16.257257916993694,,,,,,,,,P005,2023-08-03_15h19.26.107,2AFC,2023.2.0,None,2023-08-03 15h19.35.871709 -0300,
0,0,0,0,9,0.11544347,0.018828469999999972,24.793286540996633,,,,,,,,,24.79042604099959,0.0001396669977111742,25.30714745799196,25.30714745799196,25.594595999995363,25.578377915997407,25.728600207992713,25.876227125001606,26.114584499999182,1,-16.167333417004556,,,,,,,,,P005,2023-08-03_15h19.26.107,2AFC,2023.2.0,None,2023-08-03 15h19.35.871709 -0300,
0,0,0,0,10,0.11544347,0.018828469999999972,26.126960790992598,,,,,,,,,26.114703332990757,0.0001376250002067536,26.62087212500046,26.62087212500046,26.916232791001676,26.912966791001963,27.063628666001023,27.20027920800203,27.53280874999473,1,-16.0844273330149,,,,,,,,,P005,2023-08-03_15h19.26.107,2AFC,2023.2.0,None,2023-08-03 15h19.35.871709 -0300,
0,0,0,0,11,0.11544347,0.018828469999999972,27.535523790997104,,,,,,,,,27.53292466599669,0.00013741700968239456,28.03894295799546,28.03894295799546,28.336919707988272,28.320881207997445,28.471097457993892,28.618877290995442,28.90764541599492,1,-16.116745292005362,,,,,,,,,P005,2023-08-03_15h19.26.107,2AFC,2023.2.0,None,2023-08-03 15h19.35.871709 -0300,
0,0,0,0,12,0.05358411,0.001,28.919699082995066,,,,,,,,,28.907761875001597,0.00013383300392888486,29.413754332999815,29.413754332999815,29.708389291001367,29.70585241599474,29.856280874999356,29.993433124996955,30.308994207996875,0,-16.111261333004222,,,,,,,,,P005,2023-08-03_15h19.26.107,2AFC,2023.2.0,None,2023-08-03 15h19.35.871709 -0300,
0,0,0,0,13,0.05358411,0.05458411,30.314547040994512,,,,,,,,,30.309114749994478,0.00014141699648462236,30.825748666000436,30.825748666000436,31.113792957999976,31.096948457998224,31.247175040989532,31.394925415996113,31.630075957989902,1,-16.172070292013814,,,,,,,,,P005,2023-08-03_15h19.26.107,2AFC,2023.2.0,None,2023-08-03 15h19.35.871709 -0300,
0,0,0,0,14,0.05358411,0.05458411,31.635736999989604,,,,,,,,,31.630193165998207,0.00014141699648462236,32.136037374992156,32.136037374992156,32.43410183300148,32.41810645798978,32.56838737499493,32.71593216600013,32.984438040992245,1,-16.14381483399484,,,,,,,,,P005,2023-08-03_15h19.26.107,2AFC,2023.2.0,None,2023-08-03 15h19.35.871709 -0300,
0,0,0,0,15,0.02487154,0.05458411,32.9901492909994,,,,,,,,,32.984572916000616,0.0001365000061923638,33.49068816599902,33.49068816599902,33.7895464579924,33.77212708299339,33.922850707996986,34.07046658299805,34.32591416599462,1,-16.149308249994647,,,,,,,,,P005,2023-08-03_15h19.26.107,2AFC,2023.2.0,None,2023-08-03 15h19.35.871709 -0300,
0,0,0,0,16,0.02487154,0.029712569999999997,34.33799341598933,,,,,,,,,34.326017832994694,0.00011762500798795372,34.839198457993916,34.839198457993916,35.126659207991906,35.12398583299364,35.27466041599109,35.41119479099871,35.66037745799986,1,-16.17296162500861,,,,,,,,,P005,2023-08-03_15h19.26.107,2AFC,2023.2.0,None,2023-08-03 15h19.35.871709 -0300,
0,0,0,0,17,0.02487154,0.029712569999999997,35.66625275000115,,,,,,,,,35.66049624999869,0.00014541699783876538,36.166648207989056,36.166648207989056,36.46444650000194,36.4483591659955,36.59857666600146,36.74622258299496,36.96477474999847,1,-16.19176079200406,,,,,,,,,P005,2023-08-03_15h19.26.107,2AFC,2023.2.0,None,2023-08-03 15h19.35.871709 -0300,
0,0,0,0,18,0.02487154,0.029712569999999997,36.970469665990095,,,,,,,,,36.96490224999434,0.0001508330024080351,37.471005999992485,37.471005999992485,37.76947137499519,37.75253274998977,37.902760290991864,38.050658457999816,38.38588979099586,1,-16.079836125005386,,,,,,,,,P005,2023-08-03_15h19.26.107,2AFC,2023.2.0,None,2023-08-03 15h19.35.871709 -0300,
0,0,0,0,19,0.01154435,0.004841029999999996,38.39172920800047,,,,,,,,,38.38602074999653,0.00013908300024922937,38.892064582993044,38.892064582993044,39.19093795798835,39.173971915995935,39.324446582992096,39.4721305409912,39.79438795799797,0,-16.083195417013485,,,,,,,,,P005,2023-08-03_15h19.26.107,2AFC,2023.2.0,None,2023-08-03 15h19.35.871709 -0300,
0,0,0,0,20,0.01154435,0.016385379999999998,39.80645833299786,,,,,,,,,39.79451041598804,0.00013899999612476677,40.30078241600131,40.30078241600131,40.59496145800222,40.59246337499644,40.74312295799609,40.8796997909958,41.21204120799666,1,-16.08430750000116,,,,,,,,,P005,2023-08-03_15h19.26.107,2AFC,2023.2.0,None,2023-08-03 15h19.35.871709 -0300,
0,0,0,0,21,0.01154435,0.016385379999999998,41.21447537498898,,,,,,,,,41.212160249997396,0.0001509589928900823,41.7182107080007,41.7182107080007,42.01722716599761,42.0001074999891,42.15138450000086,42.298217582996585,42.65402324999741,1,-16.05043800000567,,,,,,,,,P005,2023-08-03_15h19.26.107,2AFC,2023.2.0,None,2023-08-03 15h19.35.871709 -0300,
0,0,0,0,22,0.00535841,0.016385379999999998,42.66619112499757,,,,,,,,,42.65413908299524,0.00013737499830313027,43.16041720799694,43.16041720799694,43.45463620800001,43.45218587499403,43.602663290992496,43.73984799999744,44.09220362499764,1,-16.063566292010364,,,,,,,,,P005,2023-08-03_15h19.26.107,2AFC,2023.2.0,None,2023-08-03 15h19.35.871709 -0300,
0,0,0,0,23,0.00535841,0.011026969999999997,44.10440649998782,,,,,,,,,44.09232245798921,0.00013358400610741228,44.59828620799817,44.59828620799817,44.892838915999164,44.89037008299783,45.04087695799535,45.17750416600029,45.51004079099221,1,-16.083902541009593,,,,,,,,,P005,2023-08-03_15h19.26.107,2AFC,2023.2.0,None,2023-08-03 15h19.35.871709 -0300,
0,0,0,0,24,0.00535841,0.011026969999999997,45.51253424999595,,,,,,,,,45.51015745798941,0.0001472910080337897,46.01619395799935,46.01619395799935,46.31452770798933,46.29796162499406,46.44849308299308,46.596125249998295,46.95135350000055,1,-16.050308125006268,,,,,,,,,P005,2023-08-03_15h19.26.107,2AFC,2023.2.0,None,2023-08-03 15h19.35.871709 -0300,
0,0,0,0,25,0.00535841,0.011026969999999997,46.96379195799818,,,,,,,,,46.951473540990264,0.00013749999925494194,47.4576870000019,47.4576870000019,47.753821499994956,47.74997949998942,47.90045416599605,48.03743791599118,48.35303120799654,1,-16.10967633301334,,,,,,,,,P005,2023-08-03_15h19.26.107,2AFC,2023.2.0,None,2023-08-03 15h19.35.871709 -0300,
0,0,0,0,26,0.00535841,0.005668559999999997,48.35861045798811,,,,,,,,,48.353147916001035,0.00013420800678431988,48.85943220798799,48.85943220798799,49.157343415994546,49.14089583299938,49.291482207991066,49.4389435829944,49.79114516598929,1,-16.060464875015896,,,,,,,,,P005,2023-08-03_15h19.26.107,2AFC,2023.2.0,None,2023-08-03 15h19.35.871709 -0300,
0,0,0,0,27,0.00535841,0.005668559999999997,49.79676554098842,,,,,,,,,49.79126537499542,0.00014158400881569833,50.29734037499293,50.29734037499293,50.59530649999215,50.57914966599492,50.73027970799012,50.87719070799358,51.22941745800199,1,-16.059836708998773,,,,,,,,,P005,2023-08-03_15h19.26.107,2AFC,2023.2.0,None,2023-08-03 15h19.35.871709 -0300,
0,0,0,0,28,0.00248715,0.005668559999999997,51.23532970799715,,,,,,,,,51.22953099998995,0.0001343749900115654,51.735529957994004,51.735529957994004,52.03354195799329,52.01729183299176,52.16782991599757,52.31548399999156,52.5337018329883,0,-16.19041583299986,,,,,,,,,P005,2023-08-03_15h19.26.107,2AFC,2023.2.0,None,2023-08-03 15h19.35.871709 -0300,
0,0,0,0,29,0.00248715,0.008155709999999997,52.53962120799406,,,,,,,,,52.53383400000166,0.0001303750032093376,53.03994358298951,53.03994358298951,53.337809207994724,53.32154766599706,53.47195904099499,53.61971137499495,53.97197704100108,0,-16.054521792015294,,,,,,,,,P005,2023-08-03_15h19.26.107,2AFC,2023.2.0,None,2023-08-03 15h19.35.871709 -0300,
0,0,0,0,30,0.00248715,0.010642859999999997,53.977859999999055,,,,,,,,,53.97211033299391,0.00013670799671672285,54.47814283298794,54.47814283298794,54.776286041000276,54.76027841599716,54.91028158299741,55.05792229100189,55.32649362499069,1,-16.14323445800983,,,,,,,,,P005,2023-08-03_15h19.26.107,2AFC,2023.2.0,None,2023-08-03 15h19.35.871709 -0300,
0,0,0,0,31,0.00248715,0.010642859999999997,55.33241220799391,,,,,,,,,55.3266110830009,0.00014312499843072146,55.843324999994365,55.843324999994365,56.13065774999268,56.11438037500193,56.26471320800192,56.412448040995514,56.7144643329957,1,-16.1032470830105,,,,,,,,,P005,2023-08-03_15h19.26.107,2AFC,2023.2.0,None,2023-08-03 15h19.35.871709 -0300,
0,0,0,0,32,0.00115443,0.010642859999999997,56.7168821660016,,,,,,,,,56.71458108299703,0.00013675000809598714,57.22068804099399,57.22068804099399,57.51851208299922,57.50235737499315,57.65288033300021,57.800455332995625,58.052570832995116,1,-16.16424141700554,,,,,,,,,P005,2023-08-03_15h19.26.107,2AFC,2023.2.0,None,2023-08-03 15h19.35.871709 -0300,
0,0,0,0,33,0.00115443,0.009488429999999997,58.058422999994946,,,,,,,,,58.05269304099784,0.00014341699716169387,58.558491124989814,58.558491124989814,58.8564305829932,58.84046754099836,58.99057179100055,59.138383124998654,59.32700829100213,1,-16.216790333011886,,,,,,,,,P005,2023-08-03_15h19.26.107,2AFC,2023.2.0,None,2023-08-03 15h19.35.871709 -0300,
0,0,0,0,34,0.00115443,0.009488429999999997,59.33897450000222,,,,,,,,,59.3271243749914,0.00013487499381881207,59.84008733299561,59.84008733299561,60.128243207989726,60.12494883299223,60.27546754099603,60.412268665997544,60.89913199999137,1,-15.92944529200031,,,,,,,,,P005,2023-08-03_15h19.26.107,2AFC,2023.2.0,None,2023-08-03 15h19.35.871709 -0300,
0,0,0,0,35,0.00115443,0.009488429999999997,60.9109641249961,,,,,,,,,60.899248290996184,0.00013729199417866766,61.40529341599904,61.40529341599904,61.69958704098826,61.696928582998225,61.847448040993186,61.98411104099068,62.20316874999844,0,-16.19675637500768,,,,,,,,,P005,2023-08-03_15h19.26.107,2AFC,2023.2.0,None,2023-08-03 15h19.35.871709 -0300,
0,0,0,0,36,0.00115443,0.010642859999999997,62.21520779099956,,,,,,,,,62.20329283300089,0.00013937499898020178,62.709316749998834,62.709316749998834,63.00370716598991,63.001226041000336,63.151905082995654,63.28946924999764,63.62424520798959,1,-16.080541500006802,,,,,,,,,P005,2023-08-03_15h19.26.107,2AFC,2023.2.0,None,2023-08-03 15h19.35.871709 -0300,
0,0,0,0,37,0.00115443,0.010642859999999997,63.636711290993844,,,,,,,,,63.62434237499838,0.00011416598863434047,64.13024133299768,64.13024133299768,64.42594049999025,64.42272191599477,64.55949812498875,64.71020683299867,64.92917120800121,1,-16.18349045800278,,,,,,,,,P005,2023-08-03_15h19.26.107,2AFC,2023.2.0,None,2023-08-03 15h19.35.871709 -0300,
0,0,0,0,38,0.00115443,0.010642859999999997,64.94120037498942,,,,,,,,,64.9292892079975,0.00013508299889508635,65.43539041599433,65.43539041599433,65.72959166599321,65.7271740409924,65.87769599999592,66.0143619159935,66.46377187500184,1,-15.973570000001928,,,,,,,,,P005,2023-08-03_15h19.26.107,2AFC,2023.2.0,None,2023-08-03 15h19.35.871709 -0300,
0,0,0,0,39,0.00115443,0.009488429999999997,66.46969749999698,,,,,,,,,66.46389620799164,0.00013933298760093749,66.96999462498934,66.96999462498934,67.26808791598887,67.25228970799071,67.40202637499897,67.54992954099725,67.92221579099714,1,-16.032495042003575,,,,,,,,,P005,2023-08-03_15h19.26.107,2AFC,2023.2.0,None,2023-08-03 15h19.35.871709 -0300,
0,0,0,0,40,0.00115443,0.009488429999999997,67.93444645799173,,,,,,,,,67.92233433299407,0.00013270799536257982,68.42834170800052,68.42834170800052,68.72325454099337,68.72062862500024,68.87113133299863,69.00796579099551,69.29409024999768,0,-16.12964420800563,,,,,,,,,P005,2023-08-03_15h19.26.107,2AFC,2023.2.0,None,2023-08-03 15h19.35.871709 -0300,
0,0,0,0,41,0.00115443,0.010642859999999997,69.30574587499723,,,,,,,,,69.2942128329887,0.0001365830103168264,69.80013904099178,69.80013904099178,70.09430187499675,70.09187291598937,70.24242749999394,70.37919199999305,70.62796549999621,1,-16.1766280830052,,,,,,,,,P005,2023-08-03_15h19.26.107,2AFC,2023.2.0,None,2023-08-03 15h19.35.871709 -0300,
0,0,0,0,42,0.00115443,0.010642859999999997,70.63380124999094,,,,,,,,,70.6280785830022,0.00013174999912735075,71.13438299999689,71.13438299999689,71.43286762500065,71.41587937499571,71.56610320799518,71.71399637499417,71.99943583300046,1,-16.12669391700183,,,,,,,,,P005,2023-08-03_15h19.26.107,2AFC,2023.2.0,None,2023-08-03 15h19.35.871709 -0300,
0,0,0,0,43,0.00115443,0.010642859999999997,72.00545429099293,,,,,,,,,71.99955300000147,0.0001354589912807569,72.50582033299725,72.50582033299725,72.80341966600099,72.78753583299113,72.93775008300145,73.08539287500025,73.62161133300106,1,-15.879051208001329,,,,,,,,,P005,2023-08-03_15h19.26.107,2AFC,2023.2.0,None,2023-08-03 15h19.35.871709 -0300,
0,0,0,0,44,0.00115443,0.009488429999999997,73.62754466600018,,,,,,,,,73.62173391599208,0.00013587498688139021,74.12760983299813,74.12760983299813,74.42593791599211,74.40948487499554,74.55981004099885,74.70744899999409,75.31050145799236,1,-15.814240292005707,,,,,,,,,P005,2023-08-03_15h19.26.107,2AFC,2023.2.0,None,2023-08-03 15h19.35.871709 -0300,
0,0,0,0,45,0.00115443,0.009488429999999997,75.31625158298993,,,,,,,,,75.31061691600189,0.0001387919910484925,75.82736287498847,75.82736287498847,76.11568779099616,76.09835058299359,76.24897033299203,76.39646870800061,76.76542654099467,1,-16.03899287500826,,,,,,,,,P005,2023-08-03_15h19.26.107,2AFC,2023.2.0,None,2023-08-03 15h19.35.871709 -0300,
0,0,0,0,46,0.00115443,0.009488429999999997,76.77129029099888,,,,,,,,,76.7655582909938,0.00013795799168292433,77.27173237499665,77.27173237499665,77.56953754099959,77.55373808299191,77.7039235830016,77.85113787499722,78.18694470799528,1,-16.07714695800678,,,,,,,,,P005,2023-08-03_15h19.26.107,2AFC,2023.2.0,None,2023-08-03 15h19.35.871709 -0300,
0,0,0,0,47,0.00115443,0.008333999999999998,78.19285899998795,,,,,,,,,78.18706462498812,0.00013966701226308942,78.6929115410021,78.6929115410021,78.99104158299451,78.9746877909929,79.12536624999484,79.27270916599082,79.49114829099562,0,-16.193827082999633,,,,,,,,,P005,2023-08-03_15h19.26.107,2AFC,2023.2.0,None,2023-08-03 15h19.35.871709 -0300,
0,0,0,0,48,0.00115443,0.009488429999999997,79.49702816599165,,,,,,,,,79.49129874999926,0.00013987498823553324,79.99740274999931,79.99740274999931,80.29666108298989,80.2790929999901,80.42953004100127,80.57720904098824,80.76542029099073,1,-16.216799457994057,,,,,,,,,P005,2023-08-03_15h19.26.107,2AFC,2023.2.0,None,2023-08-03 15h19.35.871709 -0300,
0,0,0,0,49,0.00115443,0.009488429999999997,80.77772749999713,,,,,,,,,80.76554129099532,0.00013845899957232177,81.27157699999225,81.27157699999225,81.56637454099837,81.56388012498792,81.71443599999475,81.851023582989,82.10022679099347,1,-16.173353958001826,,,,,,,,,P005,2023-08-03_15h19.26.107,2AFC,2023.2.0,None,2023-08-03 15h19.35.871709 -0300,
0,0,0,0,50,0.00115443,0.009488429999999997,82.10596779099433,,,,,,,,,82.10036079099518,0.00014445799752138555,82.60644087499531,82.60644087499531,82.90440183298779,82.8878748749994,83.0382524579909,83.18598233300145,83.28721616599069,0,-16.304443417000584,,,,,,,,,P005,2023-08-03_15h19.26.107,2AFC,2023.2.0,None,2023-08-03 15h19.35.871709 -0300,
0,0,0,0,51,0.00115443,0.010642859999999997,83.28971541600185,,,,,,,,,83.28733570799523,0.00013633401249535382,83.79349066599389,83.79349066599389,84.09139066599892,84.0752618330007,84.22618470799353,84.37342787499074,84.5949420830002,1,-16.18491450000147,,,,,,,,,P005,2023-08-03_15h19.26.107,2AFC,2023.2.0,None,2023-08-03 15h19.35.871709 -0300,
0,0,0,0,52,0.00115443,0.010642859999999997,84.60728545799793,,,,,,,,,84.59505595799419,0.0001488330017309636,85.10116933299287,85.10116933299287,85.39734137499181,85.3934437079879,85.54390929099463,85.68060045799939,85.8993126659916,1,-16.198187708010664,,,,,,,,,P005,2023-08-03_15h19.26.107,2AFC,2023.2.0,None,2023-08-03 15h19.35.871709 -0300,
0,0,0,0,53,0.00115443,0.010642859999999997,85.91177833300026,,,,,,,,,85.89941129100043,0.00011566700413823128,86.40572116599651,86.40572116599651,86.70064133299456,86.69795045799401,86.8343798329879,86.9855012499902,87.11700241599465,1,-16.275392834009835,,,,,,,,,P005,2023-08-03_15h19.26.107,2AFC,2023.2.0,None,2023-08-03 15h19.35.871709 -0300,
0,0,0,0,54,0.00115443,0.009488429999999997,87.12224024999887,,,,,,,,,87.11710537500039,0.00012087498907931149,87.6229840409942,87.6229840409942,87.92124562499521,87.90478270799213,88.05525629100157,88.20292791599059,88.33753424999304,1,-16.281376790997456,,,,,,,,,P005,2023-08-03_15h19.26.107,2AFC,2023.2.0,None,2023-08-03 15h19.35.871709 -0300,
0,0,0,0,55,0.00115443,0.009488429999999997,88.34284362499602,,,,,,,,,88.33763145799458,0.00011454100604169071,88.84367741599272,88.84367741599272,89.14187875000061,89.12599854099972,89.2769807500008,89.42369220800174,89.47801091599104,0,-16.351458500008448,,,,,,,,,P005,2023-08-03_15h19.26.107,2AFC,2023.2.0,None,2023-08-03 15h19.35.871709 -0300,
0,0,0,0,56,0.00115443,0.010642859999999997,89.49062183299975,,,,,,,,,89.47811399999773,0.00011187500786036253,89.98415004099661,89.98415004099661,90.27891708299285,90.27646408299915,90.42712974999449,90.56396737499745,90.69567470799666,1,-16.29097591699974,,,,,,,,,P005,2023-08-03_15h19.26.107,2AFC,2023.2.0,None,2023-08-03 15h19.35.871709 -0300,
0,0,0,0,57,0.00115443,0.010642859999999997,90.70134091599903,,,,,,,,,90.69580349999887,0.00013437500456348062,91.20186820799427,91.20186820799427,91.49982991599245,91.4841737079987,91.6340598329989,91.78169545799028,91.94992891600123,1,-16.236672375001945,,,,,,,,,P005,2023-08-03_15h19.26.107,2AFC,2023.2.0,None,2023-08-03 15h19.35.871709 -0300,
0,0,0,0,58,0.00115443,0.010642859999999997,91.95243495798786,,,,,,,,,91.95004849998804,0.0001386660005664453,92.45664304099046,92.45664304099046,92.75424524999107,92.7379702909966,92.88828408299014,93.03598408299149,93.23754575000203,0,-16.20914329199877,,,,,,,,,P005,2023-08-03_15h19.26.107,2AFC,2023.2.0,None,2023-08-03 15h19.35.871709 -0300,
0,0,0,0,59,0.00115443,0.011797289999999997,93.24295204099326,,,,,,,,,93.23768070799997,0.0001367499935440719,93.74368458299432,93.74368458299432,94.04211754100106,94.02533562498866,94.17598745800206,94.32347175000177,94.56206770800054,1,-16.167622709006537,,,,,,,,,P005,2023-08-03_15h19.26.107,2AFC,2023.2.0,None,2023-08-03 15h19.35.871709 -0300,
0,0,0,0,60,0.00115443,0.011797289999999997,94.57424770799116,,,,,,,,,94.56218845798867,0.00014254098641686141,95.06863129099656,95.06863129099656,95.36281149998831,95.36037645798933,95.51088566599356,95.64759333299298,95.73243658299907,1,-16.33113379200222,,,,,,,,,P005,2023-08-03_15h19.26.107,2AFC,2023.2.0,None,2023-08-03 15h19.35.871709 -0300,
0,0,0,0,61,0.00115443,0.011797289999999997,95.74482949999219,,,,,,,,,95.7325560409954,0.00013454200234264135,96.23864570799924,96.23864570799924,96.53354266600218,96.5309297079948,96.68146304099355,96.81824229098856,97.00015658298798,1,-16.245193666007253,,,,,,,,,P005,2023-08-03_15h19.26.107,2AFC,2023.2.0,None,2023-08-03 15h19.35.871709 -0300,
0,0,0,0,62,0.00115443,0.010642859999999997,97.00585466600023,,,,,,,,,97.00027358299121,0.0001340409944532439,97.50651220799773,97.50651220799773,97.80192824998812,97.78938291600207,97.93871154099179,98.08622904100048,98.2543785829912,1,-16.241712750008446,,,,,,,,,P005,2023-08-03_15h19.26.107,2AFC,2023.2.0,None,2023-08-03 15h19.35.871709 -0300,
0,0,0,0,63,0.00115443,0.010642859999999997,98.2603269579995,,,,,,,,,98.25450812499912,0.00016054099251050502,98.76090129099612,98.76090129099612,99.05850241599546,99.0423032079998,99.19293787499191,99.34046062499692,99.57876466598827,0,-16.167544833006104,,,,,,,,,P005,2023-08-03_15h19.26.107,2AFC,2023.2.0,None,2023-08-03 15h19.35.871709 -0300,
0,0,0,0,64,0.00115443,0.011797289999999997,99.59109566599363,,,,,,,,,99.5788846659998,0.00013333300012163818,100.08484920799674,100.08484920799674,100.37975720799295,100.37718687499,100.52772304099926,100.66447966599662,100.77953349999734,1,-16.311730583998724,,,,,,,,,P005,2023-08-03_15h19.26.107,2AFC,2023.2.0,None,2023-08-03 15h19.35.871709 -0300,
0,0,0,0,65,0.00115443,0.011797289999999997,100.78475570799492,,,,,,,,,100.77964366599917,0.00014599999121855944,101.29655424998782,101.29655424998782,101.58378445799462,101.56771866598865,101.71803562498826,101.86569816598785,102.01714445799007,1,-16.265379707998363,,,,,,,,,P005,2023-08-03_15h19.26.107,2AFC,2023.2.0,None,2023-08-03 15h19.35.871709 -0300,
0,0,0,0,66,0.00115443,0.011797289999999997,102.02286991599249,,,,,,,,,102.01727341600053,0.00013624998973682523,102.5237768329971,102.5237768329971,102.82180241600145,102.80507512499753,102.95549437499722,103.10314474999905,103.13756254100008,1,-16.376572334003868,,,,,,,,,P005,2023-08-03_15h19.26.107,2AFC,2023.2.0,None,2023-08-03 15h19.35.871709 -0300,
0,0,0,0,67,0.00115443,0.010642859999999997,103.14283766598965,,,,,,,,,103.13766304099408,0.00011633300164248794,103.64388774998952,103.64388774998952,103.94201633299235,103.92547429099795,104.07570262499212,104.22363441599009,104.9805986249994,1,-15.647917917012819,,,,,,,,,P005,2023-08-03_15h19.26.107,2AFC,2023.2.0,None,2023-08-03 15h19.35.871709 -0300,
0,0,0,0,68,0.00115443,0.010642859999999997,104.99290254099469,,,,,,,,,104.98071533298935,0.00013920800120104104,105.4870026659919,105.4870026659919,105.7829860829952,105.77872945799027,105.92921649999334,106.06622437499755,106.31492266598798,1,-16.17793975000677,,,,,,,,,P005,2023-08-03_15h19.26.107,2AFC,2023.2.0,None,2023-08-03 15h19.35.871709 -0300,
0,0,0,0,69,0.00115443,0.010642859999999997,106.32086804098799,,,,,,,,,106.31505049999396,0.00013816700084134936,106.82116666599177,106.82116666599177,107.11909758299589,107.10271595799713,107.25345591599762,107.4009471249883,107.50204749999102,1,-16.310843041006592,,,,,,,,,P005,2023-08-03_15h19.26.107,2AFC,2023.2.0,None,2023-08-03 15h19.35.871709 -0300,
0,0,0,0,70,0.00115443,0.009488429999999997,107.50788629100134,,,,,,,,,107.50216708298831,0.0001347920042462647,108.0083870410017,108.0083870410017,108.30386899999576,108.29080991599767,108.44062162499176,108.58822254098777,108.73994212500111,1,-16.258655334007926,,,,,,,,,P005,2023-08-03_15h19.26.107,2AFC,2023.2.0,None,2023-08-03 15h19.35.871709 -0300,
0,0,0,0,71,0.00115443,0.009488429999999997,108.74524637499417,,,,,,,,,108.74004541599425,0.00013845799549017102,109.2461032079882,109.2461032079882,109.54433891599183,109.52758491599525,109.67849525000202,109.8257082499913,110.0643647909892,0,-16.16705958399689,,,,,,,,,P005,2023-08-03_15h19.26.107,2AFC,2023.2.0,None,2023-08-03 15h19.35.871709 -0300,
0,0,0,0,72,0.00115443,0.010642859999999997,110.07645808300003,,,,,,,,,110.06448799998907,0.00013683299766853452,110.57046604099742,110.57046604099742,110.86501291599416,110.86248574999627,111.01329704099044,111.15021220799827,111.41576274999534,1,-16.154614792001667,,,,,,,,,P005,2023-08-03_15h19.26.107,2AFC,2023.2.0,None,2023-08-03 15h19.35.871709 -0300,
0,0,0,0,73,0.00115443,0.010642859999999997,111.42160137499741,,,,,,,,,111.41589470799954,0.00015566700312774628,111.92211466599838,111.92211466599838,112.22071429099014,112.20339883299312,112.35426083298807,112.50144624999666,112.63608050000039,1,-16.280895957999746,,,,,,,,,P005,2023-08-03_15h19.26.107,2AFC,2023.2.0,None,2023-08-03 15h19.35.871709 -0300,
0,0,0,0,74,0.00115443,0.010642859999999997,112.64143720798893,,,,,,,,,112.63617874999181,0.00011670900858007371,113.14237312499608,113.14237312499608,113.44033779099118,113.4240834999946,113.57463299999654,113.72221249999711,114.00752775000001,1,-16.128624458011473,,,,,,,,,P005,2023-08-03_15h19.26.107,2AFC,2023.2.0,None,2023-08-03 15h19.35.871709 -0300,
0,0,0,0,75,0.00115443,0.009488429999999997,114.01326100000006,,,,,,,,,114.00766199998907,0.00013720800052396953,114.5138410829968,114.5138410829968,114.81249454099452,114.79547679099778,114.94579958300164,115.09366212500026,115.28177866600163,1,-16.216780292001204,,,,,,,,,P005,2023-08-03_15h19.26.107,2AFC,2023.2.0,None,2023-08-03 15h19.35.871709 -0300,
0,0,0,0,76,0.00115443,0.009488429999999997,115.29424691598979,,,,,,,,,115.281894499989,0.00012883299496024847,115.7953446659958,115.7953446659958,116.08257149999554,116.08018287499726,116.23069299999042,116.36853387499286,116.51908554098918,1,-16.264835374997347,,,,,,,,,P005,2023-08-03_15h19.26.107,2AFC,2023.2.0,None,2023-08-03 15h19.35.871709 -0300,
0,0,0,0,77,0.00115443,0.009488429999999997,116.53151116600202,,,,,,,,,116.51920075000089,0.00013445899821817875,117.02520516599179,117.02520516599179,117.3210114579997,117.3176929159963,117.46820074999414,117.60484874999383,117.78685474999656,1,-16.242091166001046,,,,,,,,,P005,2023-08-03_15h19.26.107,2AFC,2023.2.0,None,2023-08-03 15h19.35.871709 -0300,
0,0,0,0,78,0.00115443,0.008333999999999998,117.79207099998894,,,,,,,,,117.78699074999895,0.00013158300134819,118.30384383299679,118.30384383299679,118.59218920799321,118.57483287499053,118.72591166599886,118.87292650000018,119.42599404099747,1,-15.856544792011846,,,,,,,,,P005,2023-08-03_15h19.26.107,2AFC,2023.2.0,None,2023-08-03 15h19.35.871709 -0300,
0,0,0,0,79,0.00115443,0.008333999999999998,119.43186216599133,,,,,,,,,119.42611133299943,0.00013687499449588358,119.93213058299443,119.93213058299443,120.23126804099593,120.21369754099578,120.36424787499709,120.51195891600219,120.79705816599017,1,-16.12242608300585,,,,,,,,,P005,2023-08-03_15h19.26.107,2AFC,2023.2.0,None,2023-08-03 15h19.35.871709 -0300,
0,0,0,0,80,0.00115443,0.008333999999999998,120.80285999999614,,,,,,,,,120.79718554099964,0.00013416699948720634,121.31399004098785,121.31399004098785,121.6013810000004,121.58559416599746,121.73544533298991,121.88318154099397,122.16851458299789,1,-16.121246125010657,,,,,,,,,P005,2023-08-03_15h19.26.107,2AFC,2023.2.0,None,2023-08-03 15h19.35.871709 -0300,
0,0,0,0,81,0.00115443,0.007179569999999998,122.17427720798878,,,,,,,,,122.16863166599069,0.00013520900392904878,122.67470412499097,122.67470412499097,122.97247320799215,122.95642599998973,123.10674162500072,123.25438366598974,123.47280054099974,0,-16.187795791003737,,,,,,,,,P005,2023-08-03_15h19.26.107,2AFC,2023.2.0,None,2023-08-03 15h19.35.871709 -0300,
0,0,0,0,82,0.00115443,0.008333999999999998,123.47864166599174,,,,,,,,,123.47292200000084,0.00013620899699162692,123.97920845799672,123.97920845799672,124.27701045799768,124.26072958299483,124.4112088749971,124.55868566599383,124.82740916599869,1,-16.142446166006266,,,,,,,,,P005,2023-08-03_15h19.26.107,2AFC,2023.2.0,None,2023-08-03 15h19.35.871709 -0300,
0,0,0,0,83,0.00115443,0.008333999999999998,124.83321608298866,,,,,,,,,124.82752666599117,0.00014458400255534798,125.33356695799739,125.33356695799739,125.63142379099736,125.61515433299064,125.76570933299081,125.91324162499222,126.18189708299178,1,-16.1457616250118,,,,,,,,,P005,2023-08-03_15h19.26.107,2AFC,2023.2.0,None,2023-08-03 15h19.35.871709 -0300,
0,0,0,0,84,0.00115443,0.008333999999999998,126.18782008299604,,,,,,,,,126.18202287500026,0.00013466599921230227,126.68809983300162,126.68809983300162,126.98620416599442,126.96986495799501,127.12067962498986,127.26797620799334,127.58990979100054,1,-16.083443041017745,,,,,,,,,P005,2023-08-03_15h19.26.107,2AFC,2023.2.0,None,2023-08-03 15h19.35.871709 -0300,
0,0,0,0,85,0.00115443,0.007179569999999998,127.60219074999623,,,,,,,,,127.59003391599981,0.00013816698628943413,128.0960308329959,128.0960308329959,128.39170562499203,128.38822929099842,128.53888404100144,128.67546849999053,128.94115008298832,1,-16.151420791997225,,,,,,,,,P005,2023-08-03_15h19.26.107,2AFC,2023.2.0,None,2023-08-03 15h19.35.871709 -0300,
0,0,0,0,86,0.00115443,0.007179569999999998,128.94664387499506,,,,,,,,,128.94126370799495,0.00013712499639950693,129.44737558299676,129.44737558299676,129.74529062499641,129.7294617909938,129.8795847500005,130.02720349999436,130.245494666,1,-16.18782858400664,,,,,,,,,P005,2023-08-03_15h19.26.107,2AFC,2023.2.0,None,2023-08-03 15h19.35.871709 -0300,
0,0,0,0,87,0.00115443,0.007179569999999998,130.25146983299055,,,,,,,,,130.2456213330006,0.00013745800242759287,130.75168383299024,130.75168383299024,131.04966566599614,131.03359599999385,131.18377762498858,131.33162966599048,131.5334434999968,0,-16.208822250002413,,,,,,,,,P005,2023-08-03_15h19.26.107,2AFC,2023.2.0,None,2023-08-03 15h19.35.871709 -0300,
0,0,0,0,88,0.00115443,0.008333999999999998,131.53903612498834,,,,,,,,,131.53356962499674,0.0001381250040140003,132.03948745799426,132.03948745799426,132.33736858300108,132.32150104099128,132.47155120800016,132.6191983329918,132.95497566599806,1,-16.08037720801076,,,,,,,,,P005,2023-08-03_15h19.26.107,2AFC,2023.2.0,None,2023-08-03 15h19.35.871709 -0300,
0,0,0,0,89,0.00115443,0.008333999999999998,132.96073533299204,,,,,,,,,132.95509316599055,0.0001326670026173815,133.4611232909956,133.4611232909956,133.75878566599567,133.7426112079993,133.89276487499592,134.04068924998865,134.3427161659929,0,-16.106442999996943,,,,,,,,,P005,2023-08-03_15h19.26.107,2AFC,2023.2.0,None,2023-08-03 15h19.35.871709 -0300,
0,0,0,0,90,0.00115443,0.009488429999999997,134.3486324159894,,,,,,,,,134.3428364579886,0.00014433299656957388,134.8489077080012,134.8489077080012,135.14686545799486,135.13121679099277,135.28108587500174,135.42866979099927,135.6972797079943,1,-16.144732084008865,,,,,,,,,P005,2023-08-03_15h19.26.107,2AFC,2023.2.0,None,2023-08-03 15h19.35.871709 -0300,
0,0,0,0,91,0.00115443,0.009488429999999997,135.70287320799252,,,,,,,,,135.6973997909954,0.00014762500359211117,136.2033430409938,136.2033430409938,136.50218199999654,136.48543404099473,136.63533333298983,136.7832233329973,137.08521229100006,0,-16.10336408301373,,,,,,,,,P005,2023-08-03_15h19.26.107,2AFC,2023.2.0,None,2023-08-03 15h19.35.871709 -0300,
0,0,0,0,92,0.00115443,0.010642859999999997,137.08784787499462,,,,,,,,,137.08533179099322,0.00013470801059156656,137.59166008299508,137.59166008299508,137.8894679579971,137.87358579099237,138.0232774999895,138.17122124999878,138.89149804098997,0,-15.691118500006269,,,,,,,,,P005,2023-08-03_15h19.26.107,2AFC,2023.2.0,None,2023-08-03 15h19.35.871709 -0300,
0,0,0,0,93,0.00115443,0.011797289999999997,138.8975713330001,,,,,,,,,138.89162170799682,0.00013945900718681514,139.39773437500116,139.39773437500116,139.69577433299855,139.67913845799922,139.830711290997,139.97740849999536,140.2123896659905,1,-16.17147566699714,,,,,,,,,P005,2023-08-03_15h19.26.107,2AFC,2023.2.0,None,2023-08-03 15h19.35.871709 -0300,
0,0,0,0,94,0.00115443,0.011797289999999997,140.21486429098877,,,,,,,,,140.2125202909956,0.0001347090001218021,140.71837229099765,140.71837229099765,141.01655074999144,141.00036304099194,141.150801374999,141.2984621249925,141.63403333300084,0,-16.074623000007705,,,,,,,,,P005,2023-08-03_15h19.26.107,2AFC,2023.2.0,None,2023-08-03 15h19.35.871709 -0300,
0,0,0,0,95,0.00115443,0.012951719999999996,141.63959045799857,,,,,,,,,141.63415158299904,0.00013825000496581197,142.14067054098996,142.14067054098996,142.43807729099353,142.42202041599376,142.57221866599866,142.71994045798783,143.02590633300133,1,-16.09878708301403,,,,,,,,,P005,2023-08-03_15h19.26.107,2AFC,2023.2.0,None,2023-08-03 15h19.35.871709 -0300,
0,0,0,0,96,0.00115443,0.012951719999999996,143.03767858300125,,,,,,,,,143.0260207909887,0.00013333400420378894,143.5321923750016,143.5321923750016,143.8267725409969,143.82363574999908,143.9741994579963,144.1110419579927,144.3766530409921,1,-16.151847083005123,,,,,,,,,P005,2023-08-03_15h19.26.107,2AFC,2023.2.0,None,2023-08-03 15h19.35.871709 -0300,
0,0,0,0,97,0.00115443,0.012951719999999996,144.3825316250004,,,,,,,,,144.37676820799243,0.00013395899441093206,144.88253045799502,144.88253045799502,145.17777874998865,145.16514974999882,145.31478054099716,145.46247299999231,145.74786062499334,1,-16.1201333340141,,,,,,,,,P005,2023-08-03_15h19.26.107,2AFC,2023.2.0,None,2023-08-03 15h19.35.871709 -0300,
0,0,0,0,98,0.00115443,0.011797289999999997,145.7503848329943,,,,,,,,,145.74798212500173,0.000134832996991463,146.25401058299758,146.25401058299758,146.55191108299186,146.5355828749889,146.6872188749985,146.83391620799375,147.03560579099576,1,-16.210927624997566,,,,,,,,,P005,2023-08-03_15h19.26.107,2AFC,2023.2.0,None,2023-08-03 15h19.35.871709 -0300,
0,0,0,0,99,0.00115443,0.011797289999999997,147.04128687499906,,,,,,,,,147.03572137499577,0.00016079199849627912,147.541595082992,147.541595082992,147.83967837499222,147.82327870799054,147.97370970799238,148.12146066599234,148.32327995800006,1,-16.215464042004896,,,,,,,,,P005,2023-08-03_15h19.26.107,2AFC,2023.2.0,None,2023-08-03 15h19.35.871709 -0300,
0,0,0,0,100,0.00115443,0.011797289999999997,148.32901033299277,,,,,,,,,148.32339820799825,0.00014179099525790662,148.839988540989,148.839988540989,149.12747433299955,149.11104995799542,149.26198083299096,149.40915300000052,149.62741499999538,1,-16.198252500005765,,,,,,,,,P005,2023-08-03_15h19.26.107,2AFC,2023.2.0,None,2023-08-03 15h19.35.871709 -0300,
0,0,0,0,101,0.00115443,0.010642859999999997,149.63288212499174,,,,,,,,,149.6275676660007,0.0001392920094076544,150.13354816599167,150.13354816599167,150.43197783299547,150.41575258299417,150.56592595799884,150.71349041599024,150.86493641599372,1,-16.264928042000975,,,,,,,,,P005,2023-08-03_15h19.26.107,2AFC,2023.2.0,None,2023-08-03 15h19.35.871709 -0300,
0,0,0,0,102,0.00115443,0.010642859999999997,150.8707054999977,,,,,,,,,150.86505162499088,0.0001478750054957345,151.37100074999034,151.37100074999034,151.6694728329894,151.65291687499848,151.80328758299584,151.95097037499363,152.13962787498895,0,-16.218092583003454,,,,,,,,,P005,2023-08-03_15h19.26.107,2AFC,2023.2.0,None,2023-08-03 15h19.35.871709 -0300,
0,0,0,0,103,0.00115443,0.011797289999999997,152.15151266599423,,,,,,,,,152.13975729099184,0.00013570899318438023,152.64595170799294,152.64595170799294,152.94032704099664,152.93766370799858,153.08819049999875,153.2255917500006,153.37696758299717,1,-16.263869959002477,,,,,,,,,P005,2023-08-03_15h19.26.107,2AFC,2023.2.0,None,2023-08-03 15h19.35.871709 -0300,
0,0,0,0,104,0.00115443,0.011797289999999997,153.38921466599277,,,,,,,,,153.37708370799373,0.00013608399603981525,153.8834140830004,153.8834140830004,154.1776333750022,154.1751675830019,154.3256971249939,154.46227558299142,154.5941070409899,1,-16.288171125008375,,,,,,,,,P005,2023-08-03_15h19.26.107,2AFC,2023.2.0,None,2023-08-03 15h19.35.871709 -0300,
0,0,0,0,105,0.00115443,0.011797289999999997,154.5993595829932,,,,,,,,,154.59422479099885,0.00014970799384173006,155.10038979099772,155.10038979099772,155.39834779099328,155.38212229099008,155.53230141599488,155.68021325000154,155.96553658299672,1,-16.122015333006857,,,,,,,,,P005,2023-08-03_15h19.26.107,2AFC,2023.2.0,None,2023-08-03 15h19.35.871709 -0300,
0,0,0,0,106,0.00115443,0.010642859999999997,155.97145329100022,,,,,,,,,155.96565787500003,0.00013816700084134936,156.4714975409879,156.4714975409879,156.7696022500022,156.7533587499929,156.90399095798784,157.05148404098873,157.2032229579927,1,-16.256063500011805,,,,,,,,,P005,2023-08-03_15h19.26.107,2AFC,2023.2.0,None,2023-08-03 15h19.35.871709 -0300,
0,0,0,0,107,0.00115443,0.010642859999999997,157.20583054098825,,,,,,,,,157.20334116599406,0.0001380419998895377,157.70947254099883,157.70947254099883,158.00712566600123,157.99086533299123,158.14104937500088,158.2889698749932,158.52735970799404,1,-16.166325625017635,,,,,,,,,P005,2023-08-03_15h19.26.107,2AFC,2023.2.0,None,2023-08-03 15h19.35.871709 -0300,
0,0,0,0,108,0.00115443,0.010642859999999997,158.5399139999936,,,,,,,,,158.52746179098904,0.00011712500418070704,159.0336959999986,159.0336959999986,159.32840458299324,159.32588424999267,159.47639812499983,159.6131224159908,159.79508404099033,1,-16.242442916016444,,,,,,,,,P005,2023-08-03_15h19.26.107,2AFC,2023.2.0,None,2023-08-03 15h19.35.871709 -0300,
0,0,0,0,109,0.00115443,0.009488429999999997,159.80055408299086,,,,,,,,,159.79522520799947,0.00013579199730884284,160.31203679100145,160.31203679100145,160.59958954100148,160.58324529099627,160.73384966599406,160.88116224999249,161.06928841599438,1,-16.217272374997265,,,,,,,,,P005,2023-08-03_15h19.26.107,2AFC,2023.2.0,None,2023-08-03 15h19.35.871709 -0300,
0,0,0,0,110,0.00115443,0.009488429999999997,161.08175654099614,,,,,,,,,161.0693871659896,0.00011562499275896698,161.57533241598867,161.57533241598867,161.8701922499895,161.86771183299425,162.01839566598937,162.1549759999907,162.42090662498958,1,-16.150021875015227,,,,,,,,,P005,2023-08-03_15h19.26.107,2AFC,2023.2.0,None,2023-08-03 15h19.35.871709 -0300,
0,0,0,0,111,0.00115443,0.009488429999999997,162.42361995799,,,,,,,,,162.4210258749954,0.00014200000441633165,162.9268652079918,162.9268652079918,163.22568095799943,163.20836237499316,163.3592941659881,163.50665804099117,163.6582629159966,0,-16.25351400001091,,,,,,,,,P005,2023-08-03_15h19.26.107,2AFC,2023.2.0,None,2023-08-03 15h19.35.871709 -0300,
0,0,0,0,112,0.00115443,0.010642859999999997,163.6609182079992,,,,,,,,,163.65839658299228,0.00014520800323225558,164.16471170799923,164.16471170799923,164.4630234159995,164.44606495799962,164.59689566599263,164.74419349999516,165.01286649999383,1,-16.14314800000284,,,,,,,,,P005,2023-08-03_15h19.26.107,2AFC,2023.2.0,None,2023-08-03 15h19.35.871709 -0300,
0,0,0,0,113,0.00115443,0.010642859999999997,165.01883070799522,,,,,,,,,165.01300108298892,0.000150040999869816,165.51897337500122,165.51897337500122,165.8175537079951,165.80076858299435,165.9513098749885,166.0986942909949,166.3369359579956,1,-16.167715833013062,,,,,,,,,P005,2023-08-03_15h19.26.107,2AFC,2023.2.0,None,2023-08-03 15h19.35.871709 -0300,
0,0,0,0,114,0.00115443,0.010642859999999997,166.34937812499993,,,,,,,,,166.33703075000085,0.00011291699775028974,166.8428672079899,166.8428672079899,167.13843924998946,167.1354434160021,167.28596583299804,167.4232801249891,167.55472333299986,0,-16.288846666007885,,,,,,,,,P005,2023-08-03_15h19.26.107,2AFC,2023.2.0,None,2023-08-03 15h19.35.871709 -0300,
0,0,0,0,115,0.00115443,0.011797289999999997,167.56045829100185,,,,,,,,,167.5548441659921,0.0001392920094076544,168.06102362499223,168.06102362499223,168.3588417909923,168.3426717909897,168.4936376659898,168.64065483299782,168.90919091599062,1,-16.147590000007767,,,,,,,,,P005,2023-08-03_15h19.26.107,2AFC,2023.2.0,None,2023-08-03 15h19.35.871709 -0300,
0,0,0,0,116,0.00115443,0.011797289999999997,168.91503670800012,,,,,,,,,168.90930658299476,0.00013508299889508635,169.4153145409946,169.4153145409946,169.713336832996,169.69732125000155,169.84796908299904,169.99514833299327,170.21344687500095,0,-16.19632270799775,,,,,,,,,P005,2023-08-03_15h19.26.107,2AFC,2023.2.0,None,2023-08-03 15h19.35.871709 -0300,
0,0,0,0,117,0.00115443,0.012951719999999996,170.21915666598943,,,,,,,,,170.2135876659886,0.0001330840023001656,170.7197765000019,170.7197765000019,171.0178738329996,171.00202666599944,171.15201408299617,171.29947816599451,171.5549033749994,1,-16.150161833007587,,,,,,,,,P005,2023-08-03_15h19.26.107,2AFC,2023.2.0,None,2023-08-03 15h19.35.871709 -0300,
0,0,0,0,118,0.00115443,0.012951719999999996,171.56694045799668,,,,,,,,,171.55502433299262,0.00014037500659469515,172.06105949998891,172.06105949998891,172.35537708298943,172.35295575000055,172.50363479099178,172.6403097500006,172.90585699999065,1,-16.15073641600611,,,,,,,,,P005,2023-08-03_15h19.26.107,2AFC,2023.2.0,None,2023-08-03 15h19.35.871709 -0300,
0,0,0,0,119,0.00115443,0.012951719999999996,172.90798845799873,,,,,,,,,172.90595487499377,0.00012799999967683107,173.41209904100106,173.41209904100106,173.71022124998854,173.69378337499802,173.84432291598932,173.99198887500097,174.17690262499673,1,-16.23272425000323,,,,,,,,,P005,2023-08-03_15h19.26.107,2AFC,2023.2.0,None,2023-08-03 15h19.35.871709 -0300,
0,0,0,0,120,0.00115443,0.011797289999999997,174.18254666599387,,,,,,,,,174.1770208329981,0.00013358399155549705,174.68341895799676,174.68341895799676,174.9820253749931,174.9650541250012,175.11569724998844,175.26294524999685,175.6819606659992,0,-15.997383666006499,,,,,,,,,P005,2023-08-03_15h19.26.107,2AFC,2023.2.0,None,2023-08-03 15h19.35.871709 -0300,
0,0,0,0,121,0.00115443,0.012951719999999996,175.68793904098857,,,,,,,,,175.6820829579956,0.00013570900773629546,176.18815674999496,176.18815674999496,176.4864479159878,176.46992191599566,176.62034429099003,176.76771358300175,177.02310462499736,1,-16.150055459002033,,,,,,,,,P005,2023-08-03_15h19.26.107,2AFC,2023.2.0,None,2023-08-03 15h19.35.871709 -0300,
0,0,0,0,122,0.00115443,0.012951719999999996,177.03530716599198,,,,,,,,,177.02320020800107,0.00011470798926893622,177.52937541599385,177.52937541599385,177.82390716599184,177.82145962498907,177.9721608330001,178.10870445799083,178.49148816599336,0,-16.03965479200997,,,,,,,,,P005,2023-08-03_15h19.26.107,2AFC,2023.2.0,None,2023-08-03 15h19.35.871709 -0300,
0,0,0,0,123,0.00115443,0.014106149999999996,178.49736462500005,,,,,,,,,178.4916043330013,0.0001347499928670004,178.99787149998883,178.99787149998883,179.29652687499765,179.27940691600088,179.43052483299107,179.57744545799505,179.74549862499407,1,-16.238163999994867,,,,,,,,,P005,2023-08-03_15h19.26.107,2AFC,2023.2.0,None,2023-08-03 15h19.35.871709 -0300,
0,0,0,0,124,0.00115443,0.014106149999999996,179.74806174999685,,,,,,,,,179.74561733299925,0.0001350840029772371,180.2515393329959,180.2515393329959,180.5500540829962,180.53380412499246,180.68411783299234,180.83171779099212,181.10024658299517,1,-16.14200154101127,,,,,,,,,P005,2023-08-03_15h19.26.107,2AFC,2023.2.0,None,2023-08-03 15h19.35.871709 -0300,
0,0,0,0,125,0.00115443,0.014106149999999996,181.10626324999612,,,,,,,,,181.10036195800058,0.0001367920049233362,181.60652933298843,181.60652933298843,181.90475295799843,181.88811883299786,182.03845300000103,182.18619470798876,182.3375395829935,1,-16.259134916996118,,,,,,,,,P005,2023-08-03_15h19.26.107,2AFC,2023.2.0,None,2023-08-03 15h19.35.871709 -0300,
0,0,0,0,126,0.00115443,0.012951719999999996,182.34279458298988,,,,,,,,,182.3376414999948,0.00011487500160001218,182.84348891599802,182.84348891599802,183.14178404099948,183.12575125000149,183.2760163329949,183.42371083299804,183.7759251249954,1,-16.05561491601111,,,,,,,,,P005,2023-08-03_15h19.26.107,2AFC,2023.2.0,None,2023-08-03 15h19.35.871709 -0300,
0,0,0,0,127,0.00115443,0.012951719999999996,183.7784868329909,,,,,,,,,183.77605233299255,0.00015708299179095775,184.29287183299311,184.29287183299311,184.58026112499647,184.56425574999594,184.71427883299475,184.8618974580022,185.1306066249963,1,-16.143818208001903,,,,,,,,,P005,2023-08-03_15h19.26.107,2AFC,2023.2.0,None,2023-08-03 15h19.35.871709 -0300,
0,0,0,0,128,0.00115443,0.012951719999999996,185.1362751659908,,,,,,,,,185.13074774999404,0.00015175000589806587,185.63690674999089,185.63690674999089,185.93368179099343,185.9177127909934,186.068499874993,186.21647145799943,186.43504091599607,1,-16.193446916004177,,,,,,,,,P005,2023-08-03_15h19.26.107,2AFC,2023.2.0,None,2023-08-03 15h19.35.871709 -0300,
0,0,0,0,129,0.00115443,0.011797289999999997,186.44117191599798,,,,,,,,,186.43518341598974,0.00015375000657513738,186.94133441599843,186.94133441599843,187.2391141249973,187.22338049999962,187.3736796250014,187.52095429100154,187.75599166599568,0,-16.1709706249967,,,,,,,,,P005,2023-08-03_15h19.26.107,2AFC,2023.2.0,None,2023-08-03 15h19.35.871709 -0300,
0,0,0,0,130,0.00115443,0.012951719999999996,187.75872562499717,,,,,,,,,187.75613408299978,0.00015075001283548772,188.26220766599,188.26220766599,188.56008024999755,188.54397758300183,188.69405245799862,188.84196874999907,189.09426145799807,1,-16.164704875001917,,,,,,,,,P005,2023-08-03_15h19.26.107,2AFC,2023.2.0,None,2023-08-03 15h19.35.871709 -0300,
0,0,0,0,131,0.00115443,0.012951719999999996,189.09971554100048,,,,,,,,,189.09437125000113,0.00011999999696854502,189.60038350000104,189.60038350000104,189.89787670799706,189.88242162499228,190.03192608300014,190.179875582995,190.43502770799387,1,-16.149674332991708,,,,,,,,,P005,2023-08-03_15h19.26.107,2AFC,2023.2.0,None,2023-08-03 15h19.35.871709 -0300,
0,0,0,0,132,0.00115443,0.012951719999999996,190.44742250000127,,,,,,,,,190.43512699998973,0.00011641699529718608,190.9410864579986,190.9410864579986,191.2358649999951,191.23336733299948,191.38388954100083,191.5209689159965,191.7861681659997,1,-16.15455850001308,,,,,,,,,P005,2023-08-03_15h19.26.107,2AFC,2023.2.0,None,2023-08-03 15h19.35.871709 -0300,
0,0,0,0,133,0.00115443,0.011797289999999997,191.7917282499984,,,,,,,,,191.78630341599637,0.00014479098899755627,192.30306516599376,192.30306516599376,192.5903099999996,192.57411558298918,192.72457170799316,192.8722002079885,193.17739304099814,0,-16.1003022500081,,,,,,,,,P005,2023-08-03_15h19.26.107,2AFC,2023.2.0,None,2023-08-03 15h19.35.871709 -0300,
0,0,0,0,134,0.00115443,0.012951719999999996,193.18980229098815,,,,,,,,,193.17751416598912,0.00013179199595469981,193.68349591598962,193.68349591598962,193.97866904099646,193.9759450829879,194.12646033299097,194.26407299999846,194.34751529099594,1,-16.332353292003972,,,,,,,,,P005,2023-08-03_15h19.26.107,2AFC,2023.2.0,None,2023-08-03 15h19.35.871709 -0300,
0,0,0,0,135,0.00115443,0.012951719999999996,194.360476249989,,,,,,,,,194.3476116660022,0.00011362499208189547,194.8533795409894,194.8533795409894,195.14982612499443,195.14647216600133,195.284244999988,195.43374416598817,195.61631583300186,1,-16.230226459010737,,,,,,,,,P005,2023-08-03_15h19.26.107,2AFC,2023.2.0,None,2023-08-03 15h19.35.871709 -0300,
0,0,0,0,136,0.00115443,0.012951719999999996,195.6222124999913,,,,,,,,,195.61642945799395,0.00013374999980442226,196.12258799999836,196.12258799999836,196.42069329100195,196.4043498329993,196.5542310000019,196.70190920800087,196.85328279099485,1,-16.262573750005686,,,,,,,,,P005,2023-08-03_15h19.26.107,2AFC,2023.2.0,None,2023-08-03 15h19.35.871709 -0300,
0,0,0,0,137,0.00115443,0.011797289999999997,196.85924387499108,,,,,,,,,196.85340624999662,0.00013941699580755085,197.35950495798897,197.35950495798897,197.65731475000212,197.6411931659968,197.79336545799742,197.9393592080014,198.12789495800098,1,-16.21852387500985,,,,,,,,,P005,2023-08-03_15h19.26.107,2AFC,2023.2.0,None,2023-08-03 15h19.35.871709 -0300,
0,0,0,0,138,0.00115443,0.011797289999999997,198.13998645800166,,,,,,,,,198.12799379100034,0.00011449999874457717,198.63391124999907,198.63391124999907,198.92859991599107,198.92592774999503,199.07643662499322,199.21397858299315,199.34504929099057,1,-16.286268500000006,,,,,,,,,P005,2023-08-03_15h19.26.107,2AFC,2023.2.0,None,2023-08-03 15h19.35.871709 -0300,
0,0,0,0,139,0.00115443,0.011797289999999997,199.35102966599516,,,,,,,,,199.34516733299824,0.00013575000048149377,199.86175287498918,199.86175287498918,200.14911054099503,200.13327779099927,200.28320208299556,200.43123879098857,200.64953691599658,1,-16.187753999998677,,,,,,,,,P005,2023-08-03_15h19.26.107,2AFC,2023.2.0,None,2023-08-03 15h19.35.871709 -0300,
0,0,0,0,140,0.00115443,0.010642859999999997,200.65523616599967,,,,,,,,,200.64965537498938,0.0001364579948130995,201.15580595799838,201.15580595799838,201.45355079098954,201.43725533298857,201.58751308299543,201.73547004099237,202.02098558298894,0,-16.1195110000117,,,,,,,,,P005,2023-08-03_15h19.26.107,2AFC,2023.2.0,None,2023-08-03 15h19.35.871709 -0300,
0,0,0,0,141,0.00115443,0.011797289999999997,202.02348399999028,,,,,,,,,202.02110733299924,0.00014858299982734025,202.52739983299398,202.52739983299398,202.82489408299443,202.80861333299254,202.95898358299746,203.10667629099044,203.35867883299943,1,-16.164156292012194,,,,,,,,,P005,2023-08-03_15h19.26.107,2AFC,2023.2.0,None,2023-08-03 15h19.35.871709 -0300,
0,0,0,0,142,0.00115443,0.011797289999999997,203.36430858299718,,,,,,,,,203.35879874999227,0.00014208399807102978,203.8649789159972,203.8649789159972,204.16648899999564,204.14636908299872,204.29708766599651,204.44468079099897,204.69953304099909,1,-16.15125233300205,,,,,,,,,P005,2023-08-03_15h19.26.107,2AFC,2023.2.0,None,2023-08-03 15h19.35.871709 -0300,
0,0,0,0,143,0.00115443,0.011797289999999997,204.71193212499202,,,,,,,,,204.69965570799832,0.00013508299889508635,205.2055008749885,205.2055008749885,205.5006409159978,205.49813495799026,205.64868208298867,205.78605699999025,206.0342299999902,1,-16.176779667002847,,,,,,,,,P005,2023-08-03_15h19.26.107,2AFC,2023.2.0,None,2023-08-03 15h19.35.871709 -0300,
0,0,0,0,144,0.00115443,0.010642859999999997,206.04019070799404,,,,,,,,,206.03437174999272,0.00014033300976734608,206.54039887498948,206.54039887498948,206.83834720800223,206.82262108298892,206.9723517079983,207.12021566600015,207.33850387499842,1,-16.196181166000315,,,,,,,,,P005,2023-08-03_15h19.26.107,2AFC,2023.2.0,None,2023-08-03 15h19.35.871709 -0300,
0,0,0,0,145,0.00115443,0.010642859999999997,207.3438691249903,,,,,,,,,207.33860004099552,0.00011341700155753642,207.84434866599622,207.84434866599622,208.14043858299556,208.12672358300188,208.27697254098894,208.42463762499392,209.17822862499452,0,-15.654895125000621,,,,,,,,,P005,2023-08-03_15h19.26.107,2AFC,2023.2.0,None,2023-08-03 15h19.35.871709 -0300,
0,0,0,0,146,0.00115443,0.011797289999999997,209.18421412499447,,,,,,,,,209.1783496249991,0.0001347920042462647,209.68475987498823,209.68475987498823,209.98236324999016,209.96611545799533,210.11662824999075,210.26422425000055,210.36829774999933,1,-16.30069645801268,,,,,,,,,P005,2023-08-03_15h19.26.107,2AFC,2023.2.0,None,2023-08-03 15h19.35.871709 -0300,
0,0,0,0,147,0.00115443,0.011797289999999997,210.3810610829969,,,,,,,,,210.36839454100118,0.000112749999971129,210.87451699998928,210.87451699998928,211.17028766599833,211.16720391598938,211.30352966599457,211.45437820799998,211.70347554099862,1,-16.16128500000923,,,,,,,,,P005,2023-08-03_15h19.26.107,2AFC,2023.2.0,None,2023-08-03 15h19.35.871709 -0300,
0,0,0,0,148,0.00115443,0.011797289999999997,211.7091019579966,,,,,,,,,211.70359145799011,0.00013716600369662046,212.20991770799446,212.20991770799446,212.5074537499895,212.49101208298816,212.6418297499913,212.78939049999462,213.0077644159901,1,-16.194981041000574,,,,,,,,,P005,2023-08-03_15h19.26.107,2AFC,2023.2.0,None,2023-08-03 15h19.35.871709 -0300,
0,0,0,0,149,0.00115443,0.010642859999999997,213.01339537499007,,,,,,,,,213.00789554099902,0.0001304580073338002,213.51387870799226,213.51387870799226,213.81185016599193,213.79562645799888,213.94593712499773,214.09374245798972,214.17845516599482,1,-16.32865608400607,,,,,,,,,P005,2023-08-03_15h19.26.107,2AFC,2023.2.0,None,2023-08-03 15h19.35.871709 -0300,
0,0,0,0,,,,,,,,,,,,,,,,,,,,,,,,214.17860037500213,214.18496695799695,244.16488779099018,244.18223254098848,247.00569345799158,space,-13.719903958000941,None,P005,2023-08-03_15h19.26.107,2AFC,2023.2.0,None,2023-08-03 15h19.35.871709 -0300,
